"","workerID","assignmentID","hitID","partnerCondition","trialIdx","dispType","perspective","targetObj","targetPos","numImages","distObjArr","respObjID","respObj","respObjPos","utteranceOffsetTime","respDropTime","respTime","nativeness","belief","gender","age","counter","accuracy","acc","total","accuracy.prop","include","own.cod","own.num","other.cod","other.num","meanRespTime","sdRespTime","upper","byPptMeanRespTime","logRespTime","responderType"
"1","5RXRA10","3R3YRB5GRG0WZW6JHNFL84WDLKXAUN","3SBNLSTU6U29XI6BGI0TQDNARVSDZH","robot",3,"critical_lr","same","shoe","L",2,"shoe","shoe-L","shoe","L",1638816283188,1638816284290,1102,"Y","N","female",60,1,1,43,44,0.977272727272727,"Y",1,1,0,0,1633.65664335664,1462.89804953426,6022.35079195944,1328.6875,7.00488198971286,"mixed"
"2","5RXRA10","3R3YRB5GRG0WZW6JHNFL84WDLKXAUN","3SBNLSTU6U29XI6BGI0TQDNARVSDZH","robot",6,"critical_lr","different","clock","R",2,"clock","clock-R","clock","R",1638816294707,1638816295811,1104,"Y","N","female",60,1,NA,43,44,0.977272727272727,"Y",1,1,0,0,1633.65664335664,1462.89804953426,6022.35079195944,1328.6875,7.00669522683704,"mixed"
"3","5RXRA10","3R3YRB5GRG0WZW6JHNFL84WDLKXAUN","3SBNLSTU6U29XI6BGI0TQDNARVSDZH","robot",11,"critical_lr","same","lemon","R",2,"lemon","lemon-R","lemon","R",1638816315585,1638816317076,1491,"Y","N","female",60,1,1,43,44,0.977272727272727,"Y",1,1,0,0,1633.65664335664,1462.89804953426,6022.35079195944,1328.6875,7.30720231476474,"mixed"
"4","5RXRA10","3R3YRB5GRG0WZW6JHNFL84WDLKXAUN","3SBNLSTU6U29XI6BGI0TQDNARVSDZH","robot",13,"critical_lr","different","vase","L",2,"vase","vase-L","vase","L",1638816323766,1638816324667,901,"Y","N","female",60,1,NA,43,44,0.977272727272727,"Y",1,1,0,0,1633.65664335664,1462.89804953426,6022.35079195944,1328.6875,6.80350525760834,"mixed"
"5","5RXRA10","3R3YRB5GRG0WZW6JHNFL84WDLKXAUN","3SBNLSTU6U29XI6BGI0TQDNARVSDZH","robot",17,"critical_lr","different","stapler","L",2,"stapler","stapler-L","stapler","L",1638816343746,1638816344748,1002,"Y","N","female",60,1,NA,43,44,0.977272727272727,"Y",1,1,0,0,1633.65664335664,1462.89804953426,6022.35079195944,1328.6875,6.90975328164481,"mixed"
"6","5RXRA10","3R3YRB5GRG0WZW6JHNFL84WDLKXAUN","3SBNLSTU6U29XI6BGI0TQDNARVSDZH","robot",22,"critical_fb","same","glove","F",2,"glove","glove-F","glove","F",1638816362326,1638816363897,1571,"Y","N","female",60,1,1,43,44,0.977272727272727,"Y",1,1,0,0,1633.65664335664,1462.89804953426,6022.35079195944,1328.6875,7.35946763825562,"mixed"
"7","5RXRA10","3R3YRB5GRG0WZW6JHNFL84WDLKXAUN","3SBNLSTU6U29XI6BGI0TQDNARVSDZH","robot",24,"critical_fb","different","frog","B",2,"frog","frog-F","frog","F",1638816370366,1638816371408,1042,"Y","N","female",60,1,NA,43,44,0.977272727272727,"Y",0,0,1,1,1633.65664335664,1462.89804953426,6022.35079195944,1328.6875,6.94889722231331,"mixed"
"8","5RXRA10","3R3YRB5GRG0WZW6JHNFL84WDLKXAUN","3SBNLSTU6U29XI6BGI0TQDNARVSDZH","robot",26,"critical_fb","same","plant","B",2,"plant","plant-B","plant","B",1638816378585,1638816379582,997,"Y","N","female",60,1,1,43,44,0.977272727272727,"Y",1,1,0,0,1633.65664335664,1462.89804953426,6022.35079195944,1328.6875,6.90475076996184,"mixed"
"9","5RXRA10","3R3YRB5GRG0WZW6JHNFL84WDLKXAUN","3SBNLSTU6U29XI6BGI0TQDNARVSDZH","robot",29,"critical_fb","same","kettle","F",2,"kettle","kettle-F","kettle","F",1638816390326,1638816392004,1678,"Y","N","female",60,1,1,43,44,0.977272727272727,"Y",1,1,0,0,1633.65664335664,1462.89804953426,6022.35079195944,1328.6875,7.42535788702715,"mixed"
"10","5RXRA10","3R3YRB5GRG0WZW6JHNFL84WDLKXAUN","3SBNLSTU6U29XI6BGI0TQDNARVSDZH","robot",33,"critical_lr","different","potato","R",2,"potato","potato-L","potato","L",1638816406285,1638816408856,2571,"Y","N","female",60,1,NA,43,44,0.977272727272727,"Y",0,0,1,1,1633.65664335664,1462.89804953426,6022.35079195944,1328.6875,7.85205020726589,"mixed"
"11","5RXRA10","3R3YRB5GRG0WZW6JHNFL84WDLKXAUN","3SBNLSTU6U29XI6BGI0TQDNARVSDZH","robot",37,"critical_lr","same","crab","L",2,"crab","crab-L","crab","L",1638816423476,1638816425939,2463,"Y","N","female",60,1,1,43,44,0.977272727272727,"Y",1,1,0,0,1633.65664335664,1462.89804953426,6022.35079195944,1328.6875,7.80913539812054,"mixed"
"12","5RXRA10","3R3YRB5GRG0WZW6JHNFL84WDLKXAUN","3SBNLSTU6U29XI6BGI0TQDNARVSDZH","robot",41,"critical_fb","different","cheese","F",2,"cheese","cheese-B","cheese","B",1638816444406,1638816445172,766,"Y","N","female",60,1,NA,43,44,0.977272727272727,"Y",0,0,1,1,1633.65664335664,1462.89804953426,6022.35079195944,1328.6875,6.64118216974059,"mixed"
"13","5RXRA10","3R3YRB5GRG0WZW6JHNFL84WDLKXAUN","3SBNLSTU6U29XI6BGI0TQDNARVSDZH","robot",44,"critical_fb","same","coconut","B",2,"coconut","coconut-B","coconut","B",1638816454867,1638816456943,2076,"Y","N","female",60,1,1,43,44,0.977272727272727,"Y",1,1,0,0,1633.65664335664,1462.89804953426,6022.35079195944,1328.6875,7.63819824428578,"mixed"
"14","5RXRA10","3R3YRB5GRG0WZW6JHNFL84WDLKXAUN","3SBNLSTU6U29XI6BGI0TQDNARVSDZH","robot",46,"critical_fb","different","key","B",2,"key","key-F","key","F",1638816463426,1638816464437,1011,"Y","N","female",60,1,NA,43,44,0.977272727272727,"Y",0,0,1,1,1633.65664335664,1462.89804953426,6022.35079195944,1328.6875,6.91869521902047,"mixed"
"15","5RXRA10","3R3YRB5GRG0WZW6JHNFL84WDLKXAUN","3SBNLSTU6U29XI6BGI0TQDNARVSDZH","robot",48,"critical_lr","same","cap","R",2,"cap","cap-R","cap","R",1638816470436,1638816471280,844,"Y","N","female",60,1,1,43,44,0.977272727272727,"Y",1,1,0,0,1633.65664335664,1462.89804953426,6022.35079195944,1328.6875,6.73815249459596,"mixed"
"16","5RXRA10","3R3YRB5GRG0WZW6JHNFL84WDLKXAUN","3SBNLSTU6U29XI6BGI0TQDNARVSDZH","robot",50,"critical_fb","different","mushroom","F",2,"mushroom","mushroom-B","mushroom","B",1638816478016,1638816478656,640,"Y","N","female",60,1,NA,43,44,0.977272727272727,"Y",0,0,1,1,1633.65664335664,1462.89804953426,6022.35079195944,1328.6875,6.46146817635372,"mixed"
"17","WKC0A11","3H8DHMCCWA8GU74J7J2LSIVL5Q8DKW","32L724R85LHWRPKRLN32QC1998IIP6","robot",4,"critical_fb","different","key","F",2,"key","key-B","key","B",1639506149495,1639506150310,815,"Y","N","female",24,1,NA,44,44,1,"Y",0,0,1,1,1633.65664335664,1462.89804953426,6022.35079195944,1229.125,6.70318811324086,"mixed"
"18","WKC0A11","3H8DHMCCWA8GU74J7J2LSIVL5Q8DKW","32L724R85LHWRPKRLN32QC1998IIP6","robot",8,"critical_lr","same","lemon","R",2,"lemon","lemon-R","lemon","R",1639506168525,1639506169627,1102,"Y","N","female",24,1,1,44,44,1,"Y",1,1,0,0,1633.65664335664,1462.89804953426,6022.35079195944,1229.125,7.00488198971286,"mixed"
"19","WKC0A11","3H8DHMCCWA8GU74J7J2LSIVL5Q8DKW","32L724R85LHWRPKRLN32QC1998IIP6","robot",10,"critical_fb","different","frog","B",2,"frog","frog-F","frog","F",1639506175935,1639506179176,3241,"Y","N","female",24,1,NA,44,44,1,"Y",0,0,1,1,1633.65664335664,1462.89804953426,6022.35079195944,1229.125,8.08363720314155,"mixed"
"20","WKC0A11","3H8DHMCCWA8GU74J7J2LSIVL5Q8DKW","32L724R85LHWRPKRLN32QC1998IIP6","robot",13,"critical_lr","different","clock","R",2,"clock","clock-R","clock","R",1639506189345,1639506190660,1315,"Y","N","female",24,1,NA,44,44,1,"Y",1,1,0,0,1633.65664335664,1462.89804953426,6022.35079195944,1229.125,7.18159194461187,"mixed"
"21","WKC0A11","3H8DHMCCWA8GU74J7J2LSIVL5Q8DKW","32L724R85LHWRPKRLN32QC1998IIP6","robot",17,"critical_lr","different","cap","R",2,"cap","cap-R","cap","R",1639506204804,1639506205526,722,"Y","N","female",24,1,NA,44,44,1,"Y",1,1,0,0,1633.65664335664,1462.89804953426,6022.35079195944,1229.125,6.58202513889283,"mixed"
"22","WKC0A11","3H8DHMCCWA8GU74J7J2LSIVL5Q8DKW","32L724R85LHWRPKRLN32QC1998IIP6","robot",22,"critical_fb","same","glove","B",2,"glove","glove-B","glove","B",1639506223345,1639506224543,1198,"Y","N","female",24,1,1,44,44,1,"Y",1,1,0,0,1633.65664335664,1462.89804953426,6022.35079195944,1229.125,7.08840877867539,"mixed"
"23","WKC0A11","3H8DHMCCWA8GU74J7J2LSIVL5Q8DKW","32L724R85LHWRPKRLN32QC1998IIP6","robot",26,"critical_lr","different","potato","L",2,"potato","potato-L","potato","L",1639506238335,1639506239077,742,"Y","N","female",24,1,NA,44,44,1,"Y",1,1,0,0,1633.65664335664,1462.89804953426,6022.35079195944,1229.125,6.60934924316738,"mixed"
"24","WKC0A11","3H8DHMCCWA8GU74J7J2LSIVL5Q8DKW","32L724R85LHWRPKRLN32QC1998IIP6","robot",28,"critical_fb","different","cheese","B",2,"cheese","cheese-F","cheese","F",1639506246555,1639506247210,655,"Y","N","female",24,1,NA,44,44,1,"Y",0,0,1,1,1633.65664335664,1462.89804953426,6022.35079195944,1229.125,6.48463523563525,"mixed"
"25","WKC0A11","3H8DHMCCWA8GU74J7J2LSIVL5Q8DKW","32L724R85LHWRPKRLN32QC1998IIP6","robot",30,"critical_fb","same","kettle","B",2,"kettle","kettle-B","kettle","B",1639506254054,1639506256210,2156,"Y","N","female",24,1,1,44,44,1,"Y",1,1,0,0,1633.65664335664,1462.89804953426,6022.35079195944,1229.125,7.67600993202889,"mixed"
"26","WKC0A11","3H8DHMCCWA8GU74J7J2LSIVL5Q8DKW","32L724R85LHWRPKRLN32QC1998IIP6","robot",32,"critical_lr","same","vase","R",2,"vase","vase-R","vase","R",1639506263275,1639506265460,2185,"Y","N","female",24,1,1,44,44,1,"Y",1,1,0,0,1633.65664335664,1462.89804953426,6022.35079195944,1229.125,7.68937110752969,"mixed"
"27","WKC0A11","3H8DHMCCWA8GU74J7J2LSIVL5Q8DKW","32L724R85LHWRPKRLN32QC1998IIP6","robot",34,"critical_fb","same","mushroom","F",2,"mushroom","mushroom-F","mushroom","F",1639506272855,1639506273710,855,"Y","N","female",24,1,1,44,44,1,"Y",1,1,0,0,1633.65664335664,1462.89804953426,6022.35079195944,1229.125,6.75110146893676,"mixed"
"28","WKC0A11","3H8DHMCCWA8GU74J7J2LSIVL5Q8DKW","32L724R85LHWRPKRLN32QC1998IIP6","robot",38,"critical_lr","same","crab","L",2,"crab","crab-L","crab","L",1639506287955,1639506288560,605,"Y","N","female",24,1,1,44,44,1,"Y",1,1,0,0,1633.65664335664,1462.89804953426,6022.35079195944,1229.125,6.40522845803084,"mixed"
"29","WKC0A11","3H8DHMCCWA8GU74J7J2LSIVL5Q8DKW","32L724R85LHWRPKRLN32QC1998IIP6","robot",40,"critical_fb","same","plant","F",2,"plant","plant-F","plant","F",1639506296695,1639506297377,682,"Y","N","female",24,1,1,44,44,1,"Y",1,1,0,0,1633.65664335664,1462.89804953426,6022.35079195944,1229.125,6.52502965784346,"mixed"
"30","WKC0A11","3H8DHMCCWA8GU74J7J2LSIVL5Q8DKW","32L724R85LHWRPKRLN32QC1998IIP6","robot",44,"critical_fb","different","coconut","F",2,"coconut","coconut-F","coconut","F",1639506312155,1639506313860,1705,"Y","N","female",24,1,NA,44,44,1,"Y",1,1,0,0,1633.65664335664,1462.89804953426,6022.35079195944,1229.125,7.44132038971762,"mixed"
"31","WKC0A11","3H8DHMCCWA8GU74J7J2LSIVL5Q8DKW","32L724R85LHWRPKRLN32QC1998IIP6","robot",47,"critical_lr","different","shoe","L",2,"shoe","shoe-L","shoe","L",1639506325154,1639506326060,906,"Y","N","female",24,1,NA,44,44,1,"Y",1,1,0,0,1633.65664335664,1462.89804953426,6022.35079195944,1229.125,6.80903930604298,"mixed"
"32","WKC0A11","3H8DHMCCWA8GU74J7J2LSIVL5Q8DKW","32L724R85LHWRPKRLN32QC1998IIP6","robot",50,"critical_lr","same","stapler","L",2,"stapler","stapler-L","stapler","L",1639506335895,1639506336677,782,"Y","N","female",24,1,1,44,44,1,"Y",1,1,0,0,1633.65664335664,1462.89804953426,6022.35079195944,1229.125,6.66185474054531,"mixed"
"33","3Q7CA11","31HQ4X3T3T7XG25JP99B2HU0U9ELSN","3RBI0I35XE0BA0U9R7SYZXSWURI3Y7","robot",4,"critical_fb","same","mushroom","B",2,"mushroom","mushroom-B","mushroom","B",1639004261871,1639004264178,2307,"Y","Y","male",30,1,1,43,43,1,"Y",1,1,0,0,1633.65664335664,1462.89804953426,6022.35079195944,1563.75,7.74370325817375,"egocentric"
"34","3Q7CA11","31HQ4X3T3T7XG25JP99B2HU0U9ELSN","3RBI0I35XE0BA0U9R7SYZXSWURI3Y7","robot",9,"critical_fb","different","cheese","F",2,"cheese","cheese-F","cheese","F",1639004281735,1639004283761,2026,"Y","Y","male",30,1,NA,43,43,1,"Y",1,1,0,0,1633.65664335664,1462.89804953426,6022.35079195944,1563.75,7.61381868480863,"egocentric"
"35","3Q7CA11","31HQ4X3T3T7XG25JP99B2HU0U9ELSN","3RBI0I35XE0BA0U9R7SYZXSWURI3Y7","robot",11,"critical_lr","same","shoe","L",2,"shoe","shoe-L","shoe","L",1639004291563,1639004292302,739,"Y","Y","male",30,1,1,43,43,1,"Y",1,1,0,0,1633.65664335664,1462.89804953426,6022.35079195944,1563.75,6.6052979209482,"egocentric"
"36","3Q7CA11","31HQ4X3T3T7XG25JP99B2HU0U9ELSN","3RBI0I35XE0BA0U9R7SYZXSWURI3Y7","robot",13,"critical_lr","different","lemon","L",2,"lemon","lemon-L","lemon","L",1639004298355,1639004298872,517,"Y","Y","male",30,1,NA,43,43,1,"Y",1,1,0,0,1633.65664335664,1462.89804953426,6022.35079195944,1563.75,6.24804287450843,"egocentric"
"37","3Q7CA11","31HQ4X3T3T7XG25JP99B2HU0U9ELSN","3RBI0I35XE0BA0U9R7SYZXSWURI3Y7","robot",17,"critical_lr","different","vase","R",2,"vase","vase-R","vase","R",1639004312658,1639004313934,1276,"Y","Y","male",30,1,NA,43,43,1,"Y",1,1,0,0,1633.65664335664,1462.89804953426,6022.35079195944,1563.75,7.15148546390474,"egocentric"
"38","3Q7CA11","31HQ4X3T3T7XG25JP99B2HU0U9ELSN","3RBI0I35XE0BA0U9R7SYZXSWURI3Y7","robot",19,"critical_fb","different","plant","B",2,"plant","plant-B","plant","B",1639004321926,1639004324845,2919,"Y","Y","male",30,1,NA,43,43,1,"Y",1,1,0,0,1633.65664335664,1462.89804953426,6022.35079195944,1563.75,7.97899637085411,"egocentric"
"39","3Q7CA11","31HQ4X3T3T7XG25JP99B2HU0U9ELSN","3RBI0I35XE0BA0U9R7SYZXSWURI3Y7","robot",22,"critical_fb","same","glove","B",2,"glove","glove-B","glove","B",1639004335139,1639004340490,5351,"Y","Y","male",30,1,1,43,43,1,"Y",1,1,0,0,1633.65664335664,1462.89804953426,6022.35079195944,1563.75,8.5850387383113,"egocentric"
"40","3Q7CA11","31HQ4X3T3T7XG25JP99B2HU0U9ELSN","3RBI0I35XE0BA0U9R7SYZXSWURI3Y7","robot",28,"critical_fb","same","key","F",2,"key","key-F","key","F",1639004363087,1639004363838,751,"Y","Y","male",30,1,1,43,43,1,"Y",1,1,0,0,1633.65664335664,1462.89804953426,6022.35079195944,1563.75,6.62140565176413,"egocentric"
"41","3Q7CA11","31HQ4X3T3T7XG25JP99B2HU0U9ELSN","3RBI0I35XE0BA0U9R7SYZXSWURI3Y7","robot",32,"critical_fb","different","frog","F",2,"frog","frog-F","frog","F",1639004378893,1639004381420,2527,"Y","Y","male",30,1,NA,43,43,1,"Y",1,1,0,0,1633.65664335664,1462.89804953426,6022.35079195944,1563.75,7.83478810738819,"egocentric"
"42","3Q7CA11","31HQ4X3T3T7XG25JP99B2HU0U9ELSN","3RBI0I35XE0BA0U9R7SYZXSWURI3Y7","robot",34,"critical_lr","same","potato","R",2,"potato","potato-R","potato","R",1639004388557,1639004389732,1175,"Y","Y","male",30,1,1,43,43,1,"Y",1,1,0,0,1633.65664335664,1462.89804953426,6022.35079195944,1563.75,7.06902342657826,"egocentric"
"43","3Q7CA11","31HQ4X3T3T7XG25JP99B2HU0U9ELSN","3RBI0I35XE0BA0U9R7SYZXSWURI3Y7","robot",38,"critical_lr","same","crab","L",2,"crab","crab-L","crab","L",1639004404018,1639004404526,508,"Y","Y","male",30,1,1,43,43,1,"Y",1,1,0,0,1633.65664335664,1462.89804953426,6022.35079195944,1563.75,6.23048144757848,"egocentric"
"44","3Q7CA11","31HQ4X3T3T7XG25JP99B2HU0U9ELSN","3RBI0I35XE0BA0U9R7SYZXSWURI3Y7","robot",40,"critical_lr","different","stapler","R",2,"stapler","stapler-R","stapler","R",1639004411351,1639004412709,1358,"Y","Y","male",30,1,NA,43,43,1,"Y",1,1,0,0,1633.65664335664,1462.89804953426,6022.35079195944,1563.75,7.21376830811864,"egocentric"
"45","3Q7CA11","31HQ4X3T3T7XG25JP99B2HU0U9ELSN","3RBI0I35XE0BA0U9R7SYZXSWURI3Y7","robot",42,"critical_lr","different","cap","L",2,"cap","cap-L","cap","L",1639004419307,1639004419889,582,"Y","Y","male",30,1,NA,43,43,1,"Y",1,1,0,0,1633.65664335664,1462.89804953426,6022.35079195944,1563.75,6.36647044773144,"egocentric"
"46","3Q7CA11","31HQ4X3T3T7XG25JP99B2HU0U9ELSN","3RBI0I35XE0BA0U9R7SYZXSWURI3Y7","robot",45,"critical_fb","different","kettle","B",2,"kettle","kettle-F","kettle","F",1639004429352,1639004430020,668,"Y","Y","male",30,1,NA,43,43,1,"Y",0,0,1,1,1633.65664335664,1462.89804953426,6022.35079195944,1563.75,6.50428817353665,"egocentric"
"47","3Q7CA11","31HQ4X3T3T7XG25JP99B2HU0U9ELSN","3RBI0I35XE0BA0U9R7SYZXSWURI3Y7","robot",47,"critical_fb","same","coconut","F",2,"coconut","coconut-F","coconut","F",1639004438196,1639004439952,1756,"Y","Y","male",30,1,1,43,43,1,"Y",1,1,0,0,1633.65664335664,1462.89804953426,6022.35079195944,1563.75,7.47079377419506,"egocentric"
"48","3Q7CA11","31HQ4X3T3T7XG25JP99B2HU0U9ELSN","3RBI0I35XE0BA0U9R7SYZXSWURI3Y7","robot",50,"critical_lr","same","clock","R",2,"clock","clock-R","clock","R",1639004450283,1639004450843,560,"Y","Y","male",30,1,1,43,43,1,"Y",1,1,0,0,1633.65664335664,1462.89804953426,6022.35079195944,1563.75,6.32793678372919,"egocentric"
"49","D6DCA12","3MHW492WW1AXEC48JGFVDHTWTDVVMR","3J9UN9O9J3PPYJ0DMK9CNCF1EAM0JA","robot",4,"critical_fb","different","glove","F",2,"glove","glove-B","glove","B",1638919629890,1638919631513,1623,"Y","N","male",29,1,NA,44,44,1,"Y",0,0,1,1,1633.65664335664,1462.89804953426,6022.35079195944,915.5,7.39203156751459,"mixed"
"50","D6DCA12","3MHW492WW1AXEC48JGFVDHTWTDVVMR","3J9UN9O9J3PPYJ0DMK9CNCF1EAM0JA","robot",7,"critical_fb","different","coconut","B",2,"coconut","coconut-F","coconut","F",1638919641869,1638919642695,826,"Y","N","male",29,1,NA,44,44,1,"Y",0,0,1,1,1633.65664335664,1462.89804953426,6022.35079195944,915.5,6.71659477352098,"mixed"
"51","D6DCA12","3MHW492WW1AXEC48JGFVDHTWTDVVMR","3J9UN9O9J3PPYJ0DMK9CNCF1EAM0JA","robot",10,"critical_fb","same","key","B",2,"key","key-B","key","B",1638919652219,1638919652879,660,"Y","N","male",29,1,1,44,44,1,"Y",1,1,0,0,1633.65664335664,1462.89804953426,6022.35079195944,915.5,6.49223983502047,"mixed"
"52","D6DCA12","3MHW492WW1AXEC48JGFVDHTWTDVVMR","3J9UN9O9J3PPYJ0DMK9CNCF1EAM0JA","robot",15,"critical_lr","same","lemon","R",2,"lemon","lemon-R","lemon","R",1638919671420,1638919673045,1625,"Y","N","male",29,1,1,44,44,1,"Y",1,1,0,0,1633.65664335664,1462.89804953426,6022.35079195944,915.5,7.39326309476384,"mixed"
"53","D6DCA12","3MHW492WW1AXEC48JGFVDHTWTDVVMR","3J9UN9O9J3PPYJ0DMK9CNCF1EAM0JA","robot",17,"critical_fb","same","kettle","F",2,"kettle","kettle-F","kettle","F",1638919679510,1638919680229,719,"Y","N","male",29,1,1,44,44,1,"Y",1,1,0,0,1633.65664335664,1462.89804953426,6022.35079195944,915.5,6.57786135772105,"mixed"
"54","D6DCA12","3MHW492WW1AXEC48JGFVDHTWTDVVMR","3J9UN9O9J3PPYJ0DMK9CNCF1EAM0JA","robot",20,"critical_lr","different","crab","R",2,"crab","crab-R","crab","R",1638919691880,1638919692479,599,"Y","N","male",29,1,NA,44,44,1,"Y",1,1,0,0,1633.65664335664,1462.89804953426,6022.35079195944,915.5,6.39526159811545,"mixed"
"55","D6DCA12","3MHW492WW1AXEC48JGFVDHTWTDVVMR","3J9UN9O9J3PPYJ0DMK9CNCF1EAM0JA","robot",22,"critical_lr","same","vase","L",2,"vase","vase-L","vase","L",1638919698340,1638919698779,439,"Y","N","male",29,1,1,44,44,1,"Y",1,1,0,0,1633.65664335664,1462.89804953426,6022.35079195944,915.5,6.08449941307517,"mixed"
"56","D6DCA12","3MHW492WW1AXEC48JGFVDHTWTDVVMR","3J9UN9O9J3PPYJ0DMK9CNCF1EAM0JA","robot",24,"critical_lr","different","potato","L",2,"potato","potato-L","potato","L",1638919705200,1638919705680,480,"Y","N","male",29,1,NA,44,44,1,"Y",1,1,0,0,1633.65664335664,1462.89804953426,6022.35079195944,915.5,6.17378610390194,"mixed"
"57","D6DCA12","3MHW492WW1AXEC48JGFVDHTWTDVVMR","3J9UN9O9J3PPYJ0DMK9CNCF1EAM0JA","robot",29,"critical_lr","same","clock","L",2,"clock","clock-L","clock","L",1638919723770,1638919724129,359,"Y","N","male",29,1,1,44,44,1,"Y",1,1,0,0,1633.65664335664,1462.89804953426,6022.35079195944,915.5,5.88332238848828,"mixed"
"58","D6DCA12","3MHW492WW1AXEC48JGFVDHTWTDVVMR","3J9UN9O9J3PPYJ0DMK9CNCF1EAM0JA","robot",32,"critical_lr","same","cap","R",2,"cap","cap-R","cap","R",1638919735370,1638919736029,659,"Y","N","male",29,1,1,44,44,1,"Y",1,1,0,0,1633.65664335664,1462.89804953426,6022.35079195944,915.5,6.49072353450251,"mixed"
"59","D6DCA12","3MHW492WW1AXEC48JGFVDHTWTDVVMR","3J9UN9O9J3PPYJ0DMK9CNCF1EAM0JA","robot",34,"critical_fb","same","frog","F",2,"frog","frog-F","frog","F",1638919742299,1638919742947,648,"Y","N","male",29,1,1,44,44,1,"Y",1,1,0,0,1633.65664335664,1462.89804953426,6022.35079195944,915.5,6.47389069635227,"mixed"
"60","D6DCA12","3MHW492WW1AXEC48JGFVDHTWTDVVMR","3J9UN9O9J3PPYJ0DMK9CNCF1EAM0JA","robot",38,"critical_fb","same","plant","B",2,"plant","plant-B","plant","B",1638919757219,1638919757796,577,"Y","N","male",29,1,1,44,44,1,"Y",1,1,0,0,1633.65664335664,1462.89804953426,6022.35079195944,915.5,6.3578422665081,"mixed"
"61","D6DCA12","3MHW492WW1AXEC48JGFVDHTWTDVVMR","3J9UN9O9J3PPYJ0DMK9CNCF1EAM0JA","robot",42,"critical_lr","different","stapler","R",2,"stapler","stapler-R","stapler","R",1638919772110,1638919773280,1170,"Y","N","male",29,1,NA,44,44,1,"Y",1,1,0,0,1633.65664335664,1462.89804953426,6022.35079195944,915.5,7.0647590277918,"mixed"
"62","D6DCA12","3MHW492WW1AXEC48JGFVDHTWTDVVMR","3J9UN9O9J3PPYJ0DMK9CNCF1EAM0JA","robot",45,"critical_fb","different","mushroom","B",2,"mushroom","mushroom-F","mushroom","F",1638919784919,1638919786046,1127,"Y","N","male",29,1,NA,44,44,1,"Y",0,0,1,1,1633.65664335664,1462.89804953426,6022.35079195944,915.5,7.02731451403978,"mixed"
"63","D6DCA12","3MHW492WW1AXEC48JGFVDHTWTDVVMR","3J9UN9O9J3PPYJ0DMK9CNCF1EAM0JA","robot",48,"critical_lr","different","shoe","L",2,"shoe","shoe-L","shoe","L",1638919796430,1638919798597,2167,"Y","N","male",29,1,NA,44,44,1,"Y",1,1,0,0,1633.65664335664,1462.89804953426,6022.35079195944,915.5,7.68109900153636,"mixed"
"64","D6DCA12","3MHW492WW1AXEC48JGFVDHTWTDVVMR","3J9UN9O9J3PPYJ0DMK9CNCF1EAM0JA","robot",50,"critical_fb","different","cheese","F",2,"cheese","cheese-B","cheese","B",1638919805309,1638919806279,970,"Y","N","male",29,1,NA,44,44,1,"Y",0,0,1,1,1633.65664335664,1462.89804953426,6022.35079195944,915.5,6.87729607149743,"mixed"
"65","CAQQA12","3A1PQ49WVIEV0MNZL5FTEOEKNNN1HX","3R0WOCG21M6SBJC1AV1L9L8VPFRUDR","robot",4,"critical_lr","different","cap","R",2,"cap","cap-R","cap","R",1638911589582,1638911590556,974,"Y","N","male",28,1,NA,42,44,0.954545454545455,"Y",1,1,0,0,1633.65664335664,1462.89804953426,6022.35079195944,2369.625,6.88141130364254,"mixed"
"66","CAQQA12","3A1PQ49WVIEV0MNZL5FTEOEKNNN1HX","3R0WOCG21M6SBJC1AV1L9L8VPFRUDR","robot",6,"critical_fb","same","key","F",2,"key","key-B","key","B",1638911596672,1638911599643,2971,"Y","N","male",28,1,0,42,44,0.954545454545455,"Y",0,0,1,1,1633.65664335664,1462.89804953426,6022.35079195944,2369.625,7.99665387546261,"mixed"
"67","CAQQA12","3A1PQ49WVIEV0MNZL5FTEOEKNNN1HX","3R0WOCG21M6SBJC1AV1L9L8VPFRUDR","robot",8,"critical_fb","same","kettle","F",2,"kettle","kettle-B","kettle","B",1638911607792,1638911610647,2855,"Y","N","male",28,1,0,42,44,0.954545454545455,"Y",0,0,1,1,1633.65664335664,1462.89804953426,6022.35079195944,2369.625,7.95682712209011,"mixed"
"68","CAQQA12","3A1PQ49WVIEV0MNZL5FTEOEKNNN1HX","3R0WOCG21M6SBJC1AV1L9L8VPFRUDR","robot",16,"critical_lr","different","clock","L",2,"clock","clock-L","clock","L",1638911649182,1638911650212,1030,"Y","N","male",28,1,NA,42,44,0.954545454545455,"Y",1,1,0,0,1633.65664335664,1462.89804953426,6022.35079195944,2369.625,6.93731408122368,"mixed"
"69","CAQQA12","3A1PQ49WVIEV0MNZL5FTEOEKNNN1HX","3R0WOCG21M6SBJC1AV1L9L8VPFRUDR","robot",19,"critical_fb","different","plant","B",2,"plant","plant-F","plant","F",1638911662512,1638911668485,5973,"Y","N","male",28,1,NA,42,44,0.954545454545455,"Y",0,0,1,1,1633.65664335664,1462.89804953426,6022.35079195944,2369.625,8.69500459273231,"mixed"
"70","CAQQA12","3A1PQ49WVIEV0MNZL5FTEOEKNNN1HX","3R0WOCG21M6SBJC1AV1L9L8VPFRUDR","robot",23,"critical_lr","same","lemon","L",2,"lemon","lemon-L","lemon","L",1638911690502,1638911693462,2960,"Y","N","male",28,1,1,42,44,0.954545454545455,"Y",1,1,0,0,1633.65664335664,1462.89804953426,6022.35079195944,2369.625,7.99294454731811,"mixed"
"71","CAQQA12","3A1PQ49WVIEV0MNZL5FTEOEKNNN1HX","3R0WOCG21M6SBJC1AV1L9L8VPFRUDR","robot",26,"critical_lr","different","potato","L",2,"potato","potato-L","potato","L",1638911703992,1638911706384,2392,"Y","N","male",28,1,NA,42,44,0.954545454545455,"Y",1,1,0,0,1633.65664335664,1462.89804953426,6022.35079195944,2369.625,7.77988511507052,"mixed"
"72","CAQQA12","3A1PQ49WVIEV0MNZL5FTEOEKNNN1HX","3R0WOCG21M6SBJC1AV1L9L8VPFRUDR","robot",29,"critical_fb","different","mushroom","B",2,"mushroom","mushroom-F","mushroom","F",1638911719782,1638911721356,1574,"Y","N","male",28,1,NA,42,44,0.954545454545455,"Y",0,0,1,1,1633.65664335664,1462.89804953426,6022.35079195944,2369.625,7.36137542897735,"mixed"
"73","CAQQA12","3A1PQ49WVIEV0MNZL5FTEOEKNNN1HX","3R0WOCG21M6SBJC1AV1L9L8VPFRUDR","robot",31,"critical_fb","same","coconut","B",2,"coconut","coconut-B","coconut","B",1638911728822,1638911729275,453,"Y","N","male",28,1,1,42,44,0.954545454545455,"Y",1,1,0,0,1633.65664335664,1462.89804953426,6022.35079195944,2369.625,6.11589212548303,"mixed"
"74","CAQQA12","3A1PQ49WVIEV0MNZL5FTEOEKNNN1HX","3R0WOCG21M6SBJC1AV1L9L8VPFRUDR","robot",34,"critical_fb","different","cheese","F",2,"cheese","cheese-B","cheese","B",1638911740952,1638911745014,4062,"Y","N","male",28,1,NA,42,44,0.954545454545455,"Y",0,0,1,1,1633.65664335664,1462.89804953426,6022.35079195944,2369.625,8.30943074214033,"mixed"
"75","CAQQA12","3A1PQ49WVIEV0MNZL5FTEOEKNNN1HX","3R0WOCG21M6SBJC1AV1L9L8VPFRUDR","robot",37,"critical_lr","same","shoe","L",2,"shoe","shoe-L","shoe","L",1638911756152,1638911756853,701,"Y","N","male",28,1,1,42,44,0.954545454545455,"Y",1,1,0,0,1633.65664335664,1462.89804953426,6022.35079195944,2369.625,6.55250788703459,"mixed"
"76","CAQQA12","3A1PQ49WVIEV0MNZL5FTEOEKNNN1HX","3R0WOCG21M6SBJC1AV1L9L8VPFRUDR","robot",39,"critical_fb","different","frog","F",2,"frog","frog-B","frog","B",1638911763012,1638911764122,1110,"Y","N","male",28,1,NA,42,44,0.954545454545455,"Y",0,0,1,1,1633.65664335664,1462.89804953426,6022.35079195944,2369.625,7.01211529430638,"mixed"
"77","CAQQA12","3A1PQ49WVIEV0MNZL5FTEOEKNNN1HX","3R0WOCG21M6SBJC1AV1L9L8VPFRUDR","robot",42,"critical_lr","same","stapler","R",2,"stapler","stapler-R","stapler","R",1638911776192,1638911776627,435,"Y","N","male",28,1,1,42,44,0.954545454545455,"Y",1,1,0,0,1633.65664335664,1462.89804953426,6022.35079195944,2369.625,6.07534603108868,"mixed"
"78","CAQQA12","3A1PQ49WVIEV0MNZL5FTEOEKNNN1HX","3R0WOCG21M6SBJC1AV1L9L8VPFRUDR","robot",45,"critical_fb","same","glove","B",2,"glove","glove-B","glove","B",1638911788632,1638911792599,3967,"Y","N","male",28,1,1,42,44,0.954545454545455,"Y",1,1,0,0,1633.65664335664,1462.89804953426,6022.35079195944,2369.625,8.28576542051433,"mixed"
"79","CAQQA12","3A1PQ49WVIEV0MNZL5FTEOEKNNN1HX","3R0WOCG21M6SBJC1AV1L9L8VPFRUDR","robot",48,"critical_lr","same","crab","R",2,"crab","crab-R","crab","R",1638911807552,1638911812107,4555,"Y","N","male",28,1,1,42,44,0.954545454545455,"Y",1,1,0,0,1633.65664335664,1462.89804953426,6022.35079195944,2369.625,8.42398080969406,"mixed"
"80","CAQQA12","3A1PQ49WVIEV0MNZL5FTEOEKNNN1HX","3R0WOCG21M6SBJC1AV1L9L8VPFRUDR","robot",50,"critical_lr","different","vase","R",2,"vase","vase-R","vase","R",1638911818692,1638911820594,1902,"Y","N","male",28,1,NA,42,44,0.954545454545455,"Y",1,1,0,0,1633.65664335664,1462.89804953426,6022.35079195944,2369.625,7.55066124310534,"mixed"
"81","UFDFA13","3U8YCDAGXQD86Q1K8CYN9XNBA4H0Q2","3GKAWYFRAPQFJE45T92RZFLWH2IDP5","robot",3,"critical_fb","same","stapler","B",2,"stapler","stapler-F","stapler","F",1639442369260,1639442370819,1559,"Y","Y","male",34,1,0,38,44,0.863636363636364,"Y",0,0,1,1,1633.65664335664,1462.89804953426,6022.35079195944,857.9375,7.35179986905778,"mixed"
"82","UFDFA13","3U8YCDAGXQD86Q1K8CYN9XNBA4H0Q2","3GKAWYFRAPQFJE45T92RZFLWH2IDP5","robot",5,"critical_fb","different","clock","B",2,"clock","clock-F","clock","F",1639442378420,1639442379353,933,"Y","Y","male",34,1,NA,38,44,0.863636363636364,"Y",0,0,1,1,1633.65664335664,1462.89804953426,6022.35079195944,857.9375,6.83840520084734,"mixed"
"83","UFDFA13","3U8YCDAGXQD86Q1K8CYN9XNBA4H0Q2","3GKAWYFRAPQFJE45T92RZFLWH2IDP5","robot",7,"critical_fb","same","vase","B",2,"vase","vase-F","vase","F",1639442386400,1639442387083,683,"Y","Y","male",34,1,0,38,44,0.863636363636364,"Y",0,0,1,1,1633.65664335664,1462.89804953426,6022.35079195944,857.9375,6.52649485957079,"mixed"
"84","UFDFA13","3U8YCDAGXQD86Q1K8CYN9XNBA4H0Q2","3GKAWYFRAPQFJE45T92RZFLWH2IDP5","robot",14,"critical_lr","same","cheese","L",2,"cheese","cheese-L","cheese","L",1639442417049,1639442417985,936,"Y","Y","male",34,1,1,38,44,0.863636363636364,"Y",1,1,0,0,1633.65664335664,1462.89804953426,6022.35079195944,857.9375,6.84161547647759,"mixed"
"85","UFDFA13","3U8YCDAGXQD86Q1K8CYN9XNBA4H0Q2","3GKAWYFRAPQFJE45T92RZFLWH2IDP5","robot",16,"critical_fb","same","potato","F",2,"potato","potato-B","potato","B",1639442427438,1639442428132,694,"Y","Y","male",34,1,0,38,44,0.863636363636364,"Y",0,0,1,1,1633.65664335664,1462.89804953426,6022.35079195944,857.9375,6.5424719605068,"mixed"
"86","UFDFA13","3U8YCDAGXQD86Q1K8CYN9XNBA4H0Q2","3GKAWYFRAPQFJE45T92RZFLWH2IDP5","robot",18,"critical_fb","same","cap","F",2,"cap","cap-B","cap","B",1639442436798,1639442437247,449,"Y","Y","male",34,1,0,38,44,0.863636363636364,"Y",0,0,1,1,1633.65664335664,1462.89804953426,6022.35079195944,857.9375,6.10702288774225,"mixed"
"87","UFDFA13","3U8YCDAGXQD86Q1K8CYN9XNBA4H0Q2","3GKAWYFRAPQFJE45T92RZFLWH2IDP5","robot",22,"critical_fb","different","shoe","B",2,"shoe","shoe-F","shoe","F",1639442454426,1639442455146,720,"Y","Y","male",34,1,NA,38,44,0.863636363636364,"Y",0,0,1,1,1633.65664335664,1462.89804953426,6022.35079195944,857.9375,6.5792512120101,"mixed"
"88","UFDFA13","3U8YCDAGXQD86Q1K8CYN9XNBA4H0Q2","3GKAWYFRAPQFJE45T92RZFLWH2IDP5","robot",24,"critical_lr","same","plant","R",2,"plant","plant-R","plant","R",1639442463856,1639442464479,623,"Y","Y","male",34,1,1,38,44,0.863636363636364,"Y",1,1,0,0,1633.65664335664,1462.89804953426,6022.35079195944,857.9375,6.43454651878745,"mixed"
"89","UFDFA13","3U8YCDAGXQD86Q1K8CYN9XNBA4H0Q2","3GKAWYFRAPQFJE45T92RZFLWH2IDP5","robot",27,"critical_lr","different","glove","R",2,"glove","glove-R","glove","R",1639442477056,1639442477858,802,"Y","Y","male",34,1,NA,38,44,0.863636363636364,"Y",1,1,0,0,1633.65664335664,1462.89804953426,6022.35079195944,857.9375,6.68710860786651,"mixed"
"90","UFDFA13","3U8YCDAGXQD86Q1K8CYN9XNBA4H0Q2","3GKAWYFRAPQFJE45T92RZFLWH2IDP5","robot",30,"critical_lr","same","key","R",2,"key","key-R","key","R",1639442491496,1639442492508,1012,"Y","Y","male",34,1,1,38,44,0.863636363636364,"Y",1,1,0,0,1633.65664335664,1462.89804953426,6022.35079195944,857.9375,6.91968384984741,"mixed"
"91","UFDFA13","3U8YCDAGXQD86Q1K8CYN9XNBA4H0Q2","3GKAWYFRAPQFJE45T92RZFLWH2IDP5","robot",32,"critical_fb","different","lemon","F",2,"lemon","lemon-B","lemon","B",1639442503300,1639442504162,862,"Y","Y","male",34,1,NA,38,44,0.863636363636364,"Y",0,0,1,1,1633.65664335664,1462.89804953426,6022.35079195944,857.9375,6.75925527066369,"mixed"
"92","UFDFA13","3U8YCDAGXQD86Q1K8CYN9XNBA4H0Q2","3GKAWYFRAPQFJE45T92RZFLWH2IDP5","robot",37,"critical_fb","different","crab","F",2,"crab","crab-B","crab","B",1639442532099,1639442532561,462,"Y","Y","male",34,1,NA,38,44,0.863636363636364,"Y",0,0,1,1,1633.65664335664,1462.89804953426,6022.35079195944,857.9375,6.13556489108174,"mixed"
"93","UFDFA13","3U8YCDAGXQD86Q1K8CYN9XNBA4H0Q2","3GKAWYFRAPQFJE45T92RZFLWH2IDP5","robot",40,"critical_lr","different","coconut","L",2,"coconut","coconut-L","coconut","L",1639442548398,1639442549178,780,"Y","Y","male",34,1,NA,38,44,0.863636363636364,"Y",1,1,0,0,1633.65664335664,1462.89804953426,6022.35079195944,857.9375,6.65929391968364,"mixed"
"94","UFDFA13","3U8YCDAGXQD86Q1K8CYN9XNBA4H0Q2","3GKAWYFRAPQFJE45T92RZFLWH2IDP5","robot",42,"critical_lr","different","kettle","L",2,"kettle","kettle-L","kettle","L",1639442557478,1639442558873,1395,"Y","Y","male",34,1,NA,38,44,0.863636363636364,"Y",1,1,0,0,1633.65664335664,1462.89804953426,6022.35079195944,857.9375,7.24064969425547,"mixed"
"95","UFDFA13","3U8YCDAGXQD86Q1K8CYN9XNBA4H0Q2","3GKAWYFRAPQFJE45T92RZFLWH2IDP5","robot",46,"critical_lr","same","mushroom","L",2,"mushroom","mushroom-L","mushroom","L",1639442581997,1639442582988,991,"Y","Y","male",34,1,1,38,44,0.863636363636364,"Y",1,1,0,0,1633.65664335664,1462.89804953426,6022.35079195944,857.9375,6.89871453432999,"mixed"
"96","UFDFA13","3U8YCDAGXQD86Q1K8CYN9XNBA4H0Q2","3GKAWYFRAPQFJE45T92RZFLWH2IDP5","robot",50,"critical_lr","different","frog","R",2,"frog","frog-R","frog","R",1639442604696,1639442605522,826,"Y","Y","male",34,1,NA,38,44,0.863636363636364,"Y",1,1,0,0,1633.65664335664,1462.89804953426,6022.35079195944,857.9375,6.71659477352098,"mixed"
"97","EKO0A14","3WSELTNVR4ZHZJRUHIPB38AB3XRTAZ","3GKAWYFRAPQFJE45T92RZFLWH2IDP5","robot",5,"critical_fb","same","key","B",2,"key","key-B","key","B",1639440478596,1639440479982,1386,"Y","N","male",37,1,1,44,44,1,"Y",1,1,0,0,1633.65664335664,1462.89804953426,6022.35079195944,1633.125,7.23417717974985,"mixed"
"98","EKO0A14","3WSELTNVR4ZHZJRUHIPB38AB3XRTAZ","3GKAWYFRAPQFJE45T92RZFLWH2IDP5","robot",7,"critical_lr","same","clock","L",2,"clock","clock-L","clock","L",1639440487966,1639440490523,2557,"Y","N","male",37,1,1,44,44,1,"Y",1,1,0,0,1633.65664335664,1462.89804953426,6022.35079195944,1633.125,7.84658997529119,"mixed"
"99","EKO0A14","3WSELTNVR4ZHZJRUHIPB38AB3XRTAZ","3GKAWYFRAPQFJE45T92RZFLWH2IDP5","robot",10,"critical_lr","different","crab","L",2,"crab","crab-L","crab","L",1639440501406,1639440503561,2155,"Y","N","male",37,1,NA,44,44,1,"Y",1,1,0,0,1633.65664335664,1462.89804953426,6022.35079195944,1633.125,7.67554600253785,"mixed"
"100","EKO0A14","3WSELTNVR4ZHZJRUHIPB38AB3XRTAZ","3GKAWYFRAPQFJE45T92RZFLWH2IDP5","robot",13,"critical_lr","same","lemon","R",2,"lemon","lemon-R","lemon","R",1639440514485,1639440515484,999,"Y","N","male",37,1,1,44,44,1,"Y",1,1,0,0,1633.65664335664,1462.89804953426,6022.35079195944,1633.125,6.90675477864855,"mixed"
"101","EKO0A14","3WSELTNVR4ZHZJRUHIPB38AB3XRTAZ","3GKAWYFRAPQFJE45T92RZFLWH2IDP5","robot",19,"critical_lr","different","vase","R",2,"vase","vase-R","vase","R",1639440542485,1639440544026,1541,"Y","N","male",37,1,NA,44,44,1,"Y",1,1,0,0,1633.65664335664,1462.89804953426,6022.35079195944,1633.125,7.34018683532012,"mixed"
"102","EKO0A14","3WSELTNVR4ZHZJRUHIPB38AB3XRTAZ","3GKAWYFRAPQFJE45T92RZFLWH2IDP5","robot",21,"critical_fb","different","glove","F",2,"glove","glove-B","glove","B",1639440550766,1639440553568,2802,"Y","N","male",37,1,NA,44,44,1,"Y",0,0,1,1,1633.65664335664,1462.89804953426,6022.35079195944,1633.125,7.93808872689695,"mixed"
"103","EKO0A14","3WSELTNVR4ZHZJRUHIPB38AB3XRTAZ","3GKAWYFRAPQFJE45T92RZFLWH2IDP5","robot",24,"critical_fb","different","mushroom","B",2,"mushroom","mushroom-F","mushroom","F",1639440564995,1639440566673,1678,"Y","N","male",37,1,NA,44,44,1,"Y",0,0,1,1,1633.65664335664,1462.89804953426,6022.35079195944,1633.125,7.42535788702715,"mixed"
"104","EKO0A14","3WSELTNVR4ZHZJRUHIPB38AB3XRTAZ","3GKAWYFRAPQFJE45T92RZFLWH2IDP5","robot",26,"critical_lr","same","cap","L",2,"cap","cap-L","cap","L",1639440573985,1639440577131,3146,"Y","N","male",37,1,1,44,44,1,"Y",1,1,0,0,1633.65664335664,1462.89804953426,6022.35079195944,1633.125,8.05388708361822,"mixed"
"105","EKO0A14","3WSELTNVR4ZHZJRUHIPB38AB3XRTAZ","3GKAWYFRAPQFJE45T92RZFLWH2IDP5","robot",29,"critical_fb","same","kettle","F",2,"kettle","kettle-F","kettle","F",1639440587015,1639440588654,1639,"Y","N","male",37,1,1,44,44,1,"Y",1,1,0,0,1633.65664335664,1462.89804953426,6022.35079195944,1633.125,7.40184157874383,"mixed"
"106","EKO0A14","3WSELTNVR4ZHZJRUHIPB38AB3XRTAZ","3GKAWYFRAPQFJE45T92RZFLWH2IDP5","robot",33,"critical_fb","same","coconut","B",2,"coconut","coconut-B","coconut","B",1639440604275,1639440605273,998,"Y","N","male",37,1,1,44,44,1,"Y",1,1,0,0,1633.65664335664,1462.89804953426,6022.35079195944,1633.125,6.90575327631146,"mixed"
"107","EKO0A14","3WSELTNVR4ZHZJRUHIPB38AB3XRTAZ","3GKAWYFRAPQFJE45T92RZFLWH2IDP5","robot",35,"critical_fb","same","frog","F",2,"frog","frog-F","frog","F",1639440612395,1639440613965,1570,"Y","N","male",37,1,1,44,44,1,"Y",1,1,0,0,1633.65664335664,1462.89804953426,6022.35079195944,1633.125,7.35883089834235,"mixed"
"108","EKO0A14","3WSELTNVR4ZHZJRUHIPB38AB3XRTAZ","3GKAWYFRAPQFJE45T92RZFLWH2IDP5","robot",40,"critical_lr","different","stapler","L",2,"stapler","stapler-L","stapler","L",1639440642055,1639440644155,2100,"Y","N","male",37,1,NA,44,44,1,"Y",1,1,0,0,1633.65664335664,1462.89804953426,6022.35079195944,1633.125,7.64969262371151,"mixed"
"109","EKO0A14","3WSELTNVR4ZHZJRUHIPB38AB3XRTAZ","3GKAWYFRAPQFJE45T92RZFLWH2IDP5","robot",42,"critical_lr","same","potato","R",2,"potato","potato-R","potato","R",1639440654375,1639440654946,571,"Y","N","male",37,1,1,44,44,1,"Y",1,1,0,0,1633.65664335664,1462.89804953426,6022.35079195944,1633.125,6.34738920965601,"mixed"
"110","EKO0A14","3WSELTNVR4ZHZJRUHIPB38AB3XRTAZ","3GKAWYFRAPQFJE45T92RZFLWH2IDP5","robot",45,"critical_fb","different","cheese","B",2,"cheese","cheese-F","cheese","F",1639440665015,1639440665803,788,"Y","N","male",37,1,NA,44,44,1,"Y",0,0,1,1,1633.65664335664,1462.89804953426,6022.35079195944,1633.125,6.66949808985788,"mixed"
"111","EKO0A14","3WSELTNVR4ZHZJRUHIPB38AB3XRTAZ","3GKAWYFRAPQFJE45T92RZFLWH2IDP5","robot",48,"critical_fb","different","plant","F",2,"plant","plant-B","plant","B",1639440675325,1639440676227,902,"Y","N","male",37,1,NA,44,44,1,"Y",0,0,1,1,1633.65664335664,1462.89804953426,6022.35079195944,1633.125,6.80461452006262,"mixed"
"112","EKO0A14","3WSELTNVR4ZHZJRUHIPB38AB3XRTAZ","3GKAWYFRAPQFJE45T92RZFLWH2IDP5","robot",50,"critical_lr","different","shoe","R",2,"shoe","shoe-R","shoe","R",1639440683155,1639440684453,1298,"Y","N","male",37,1,NA,44,44,1,"Y",1,1,0,0,1633.65664335664,1462.89804953426,6022.35079195944,1633.125,7.16857989726403,"mixed"
"113","J0RVA15","336YQZE83WBGGIPTDPXI9JZXHB65MG","3GKAWYFRAPQFJE45T92RZFLWH2IDP5","robot",5,"critical_lr","different","shoe","R",2,"shoe","shoe-R","shoe","R",1639451788489,1639451791092,2603,"Y","N","male",30,1,NA,37,44,0.840909090909091,"Y",1,1,0,0,1633.65664335664,1462.89804953426,6022.35079195944,3504.6875,7.86441990499457,"mixed"
"114","J0RVA15","336YQZE83WBGGIPTDPXI9JZXHB65MG","3GKAWYFRAPQFJE45T92RZFLWH2IDP5","robot",11,"critical_lr","different","cap","L",2,"cap","cap-R","cap","R",1639451829030,1639451833679,4649,"Y","N","male",30,1,NA,37,44,0.840909090909091,"Y",0,0,1,1,1633.65664335664,1462.89804953426,6022.35079195944,3504.6875,8.44440742169058,"mixed"
"115","J0RVA15","336YQZE83WBGGIPTDPXI9JZXHB65MG","3GKAWYFRAPQFJE45T92RZFLWH2IDP5","robot",18,"critical_fb","different","plant","F",2,"plant","plant-B","plant","B",1639451884499,1639451887067,2568,"Y","N","male",30,1,NA,37,44,0.840909090909091,"Y",0,0,1,1,1633.65664335664,1462.89804953426,6022.35079195944,3504.6875,7.85088266480985,"mixed"
"116","J0RVA15","336YQZE83WBGGIPTDPXI9JZXHB65MG","3GKAWYFRAPQFJE45T92RZFLWH2IDP5","robot",22,"critical_lr","same","stapler","R",2,"stapler","stapler-R","stapler","R",1639451909312,1639451911605,2293,"Y","N","male",30,1,1,37,44,0.840909090909091,"Y",1,1,0,0,1633.65664335664,1462.89804953426,6022.35079195944,3504.6875,7.7376162828579,"mixed"
"117","J0RVA15","336YQZE83WBGGIPTDPXI9JZXHB65MG","3GKAWYFRAPQFJE45T92RZFLWH2IDP5","robot",24,"critical_fb","different","key","B",2,"key","key-F","key","F",1639451925071,1639451927350,2279,"Y","N","male",30,1,NA,37,44,0.840909090909091,"Y",0,0,1,1,1633.65664335664,1462.89804953426,6022.35079195944,3504.6875,7.73149202924568,"mixed"
"118","J0RVA15","336YQZE83WBGGIPTDPXI9JZXHB65MG","3GKAWYFRAPQFJE45T92RZFLWH2IDP5","robot",28,"critical_fb","different","cheese","F",2,"cheese","cheese-B","cheese","B",1639451944072,1639451946193,2121,"Y","N","male",30,1,NA,37,44,0.840909090909091,"Y",0,0,1,1,1633.65664335664,1462.89804953426,6022.35079195944,3504.6875,7.65964295456468,"mixed"
"119","J0RVA15","336YQZE83WBGGIPTDPXI9JZXHB65MG","3GKAWYFRAPQFJE45T92RZFLWH2IDP5","robot",32,"critical_lr","same","vase","L",2,"vase","vase-L","vase","L",1639451971280,1639451973496,2216,"Y","N","male",30,1,1,37,44,0.840909090909091,"Y",1,1,0,0,1633.65664335664,1462.89804953426,6022.35079195944,3504.6875,7.70345904786717,"mixed"
"120","J0RVA15","336YQZE83WBGGIPTDPXI9JZXHB65MG","3GKAWYFRAPQFJE45T92RZFLWH2IDP5","robot",36,"critical_lr","different","crab","L",2,"crab","crab-L","crab","L",1639451989302,1639451990835,1533,"Y","N","male",30,1,NA,37,44,0.840909090909091,"Y",1,1,0,0,1633.65664335664,1462.89804953426,6022.35079195944,3504.6875,7.33498187887181,"mixed"
"121","J0RVA15","336YQZE83WBGGIPTDPXI9JZXHB65MG","3GKAWYFRAPQFJE45T92RZFLWH2IDP5","robot",39,"critical_lr","different","lemon","R",2,"lemon","lemon-R","lemon","R",1639452003141,1639452007045,3904,"Y","N","male",30,1,NA,37,44,0.840909090909091,"Y",1,1,0,0,1633.65664335664,1462.89804953426,6022.35079195944,3504.6875,8.26975694753298,"mixed"
"122","J0RVA15","336YQZE83WBGGIPTDPXI9JZXHB65MG","3GKAWYFRAPQFJE45T92RZFLWH2IDP5","robot",42,"critical_lr","same","potato","R",2,"potato","potato-R","potato","R",1639452030341,1639452032413,2072,"Y","N","male",30,1,1,37,44,0.840909090909091,"Y",1,1,0,0,1633.65664335664,1462.89804953426,6022.35079195944,3504.6875,7.63626960337937,"mixed"
"123","J0RVA15","336YQZE83WBGGIPTDPXI9JZXHB65MG","3GKAWYFRAPQFJE45T92RZFLWH2IDP5","robot",45,"critical_lr","same","clock","L",2,"clock","clock-L","clock","L",1639452054477,1639452055861,1384,"Y","N","male",30,1,1,37,44,0.840909090909091,"Y",1,1,0,0,1633.65664335664,1462.89804953426,6022.35079195944,3504.6875,7.23273313617761,"mixed"
"124","J0RVA15","336YQZE83WBGGIPTDPXI9JZXHB65MG","3GKAWYFRAPQFJE45T92RZFLWH2IDP5","robot",48,"critical_fb","same","kettle","F",2,"kettle","kettle-B","kettle","B",1639452087733,1639452089365,1632,"Y","N","male",30,1,0,37,44,0.840909090909091,"Y",0,0,1,1,1633.65664335664,1462.89804953426,6022.35079195944,3504.6875,7.39756153552405,"mixed"
"125","J0RVA15","336YQZE83WBGGIPTDPXI9JZXHB65MG","3GKAWYFRAPQFJE45T92RZFLWH2IDP5","robot",50,"critical_fb","same","coconut","B",2,"coconut","coconut-F","coconut","F",1639452097574,1639452099104,1530,"Y","N","male",30,1,0,37,44,0.840909090909091,"Y",0,0,1,1,1633.65664335664,1462.89804953426,6022.35079195944,3504.6875,7.33302301438648,"mixed"
"126","I0XUA16","354P56DE9L0Y1HGHLF81JCCZ05XS76","32CXT5U14G0GUOGATNQ5NTUUES3U82","robot",5,"critical_fb","same","coconut","F",2,"coconut","coconut-F","coconut","F",1639427255133,1639427257241,2108,"Y","N","male",39,1,1,43,44,0.977272727272727,"Y",1,1,0,0,1633.65664335664,1462.89804953426,6022.35079195944,1242.75,7.65349490966125,"mixed"
"127","I0XUA16","354P56DE9L0Y1HGHLF81JCCZ05XS76","32CXT5U14G0GUOGATNQ5NTUUES3U82","robot",7,"critical_lr","same","lemon","R",2,"lemon","lemon-R","lemon","R",1639427264413,1639427265182,769,"Y","N","male",39,1,1,43,44,0.977272727272727,"Y",1,1,0,0,1633.65664335664,1462.89804953426,6022.35079195944,1242.75,6.64509096950564,"mixed"
"128","I0XUA16","354P56DE9L0Y1HGHLF81JCCZ05XS76","32CXT5U14G0GUOGATNQ5NTUUES3U82","robot",10,"critical_fb","different","mushroom","B",2,"mushroom","mushroom-F","mushroom","F",1639427277320,1639427279315,1995,"Y","N","male",39,1,NA,43,44,0.977272727272727,"Y",0,0,1,1,1633.65664335664,1462.89804953426,6022.35079195944,1242.75,7.59839932932396,"mixed"
"129","I0XUA16","354P56DE9L0Y1HGHLF81JCCZ05XS76","32CXT5U14G0GUOGATNQ5NTUUES3U82","robot",13,"critical_fb","same","plant","B",2,"plant","plant-B","plant","B",1639427289200,1639427289890,690,"Y","N","male",39,1,1,43,44,0.977272727272727,"Y",1,1,0,0,1633.65664335664,1462.89804953426,6022.35079195944,1242.75,6.5366915975913,"mixed"
"130","I0XUA16","354P56DE9L0Y1HGHLF81JCCZ05XS76","32CXT5U14G0GUOGATNQ5NTUUES3U82","robot",18,"critical_fb","same","frog","B",2,"frog","frog-B","frog","B",1639427305839,1639427306764,925,"Y","N","male",39,1,1,43,44,0.977272727272727,"Y",1,1,0,0,1633.65664335664,1462.89804953426,6022.35079195944,1242.75,6.82979373751242,"mixed"
"131","I0XUA16","354P56DE9L0Y1HGHLF81JCCZ05XS76","32CXT5U14G0GUOGATNQ5NTUUES3U82","robot",22,"critical_fb","different","key","F",2,"key","key-B","key","B",1639427320378,1639427320872,494,"Y","N","male",39,1,NA,43,44,0.977272727272727,"Y",0,0,1,1,1633.65664335664,1462.89804953426,6022.35079195944,1242.75,6.20253551718792,"mixed"
"132","I0XUA16","354P56DE9L0Y1HGHLF81JCCZ05XS76","32CXT5U14G0GUOGATNQ5NTUUES3U82","robot",25,"critical_fb","different","cheese","F",2,"cheese","cheese-B","cheese","B",1639427333509,1639427334597,1088,"Y","N","male",39,1,NA,43,44,0.977272727272727,"Y",0,0,1,1,1633.65664335664,1462.89804953426,6022.35079195944,1242.75,6.99209642741589,"mixed"
"133","I0XUA16","354P56DE9L0Y1HGHLF81JCCZ05XS76","32CXT5U14G0GUOGATNQ5NTUUES3U82","robot",28,"critical_lr","same","cap","L",2,"cap","cap-L","cap","L",1639427344588,1639427346022,1434,"Y","N","male",39,1,1,43,44,0.977272727272727,"Y",1,1,0,0,1633.65664335664,1462.89804953426,6022.35079195944,1242.75,7.26822302115957,"mixed"
"134","I0XUA16","354P56DE9L0Y1HGHLF81JCCZ05XS76","32CXT5U14G0GUOGATNQ5NTUUES3U82","robot",31,"critical_lr","different","potato","R",2,"potato","potato-R","potato","R",1639427355569,1639427356271,702,"Y","N","male",39,1,NA,43,44,0.977272727272727,"Y",1,1,0,0,1633.65664335664,1462.89804953426,6022.35079195944,1242.75,6.55393340402581,"mixed"
"135","I0XUA16","354P56DE9L0Y1HGHLF81JCCZ05XS76","32CXT5U14G0GUOGATNQ5NTUUES3U82","robot",33,"critical_lr","same","stapler","L",2,"stapler","stapler-L","stapler","L",1639427363049,1639427363738,689,"Y","N","male",39,1,1,43,44,0.977272727272727,"Y",1,1,0,0,1633.65664335664,1462.89804953426,6022.35079195944,1242.75,6.53524127101366,"mixed"
"136","I0XUA16","354P56DE9L0Y1HGHLF81JCCZ05XS76","32CXT5U14G0GUOGATNQ5NTUUES3U82","robot",37,"critical_fb","same","kettle","F",2,"kettle","kettle-F","kettle","F",1639427378459,1639427379438,979,"Y","N","male",39,1,1,43,44,0.977272727272727,"Y",1,1,0,0,1633.65664335664,1462.89804953426,6022.35079195944,1242.75,6.88653164253051,"mixed"
"137","I0XUA16","354P56DE9L0Y1HGHLF81JCCZ05XS76","32CXT5U14G0GUOGATNQ5NTUUES3U82","robot",41,"critical_lr","different","crab","L",2,"crab","crab-L","crab","L",1639427393708,1639427394379,671,"Y","N","male",39,1,NA,43,44,0.977272727272727,"Y",1,1,0,0,1633.65664335664,1462.89804953426,6022.35079195944,1242.75,6.50876913697168,"mixed"
"138","I0XUA16","354P56DE9L0Y1HGHLF81JCCZ05XS76","32CXT5U14G0GUOGATNQ5NTUUES3U82","robot",44,"critical_lr","same","vase","R",2,"vase","vase-R","vase","R",1639427404249,1639427405304,1055,"Y","N","male",39,1,1,43,44,0.977272727272727,"Y",1,1,0,0,1633.65664335664,1462.89804953426,6022.35079195944,1242.75,6.96129604591017,"mixed"
"139","I0XUA16","354P56DE9L0Y1HGHLF81JCCZ05XS76","32CXT5U14G0GUOGATNQ5NTUUES3U82","robot",46,"critical_fb","different","glove","B",2,"glove","glove-F","glove","F",1639427411464,1639427413371,1907,"Y","N","male",39,1,NA,43,44,0.977272727272727,"Y",0,0,1,1,1633.65664335664,1462.89804953426,6022.35079195944,1242.75,7.55328660560042,"mixed"
"140","I0XUA16","354P56DE9L0Y1HGHLF81JCCZ05XS76","32CXT5U14G0GUOGATNQ5NTUUES3U82","robot",48,"critical_lr","different","clock","R",2,"clock","clock-R","clock","R",1639427419974,1639427420604,630,"Y","N","male",39,1,NA,43,44,0.977272727272727,"Y",1,1,0,0,1633.65664335664,1462.89804953426,6022.35079195944,1242.75,6.44571981938558,"mixed"
"141","I0XUA16","354P56DE9L0Y1HGHLF81JCCZ05XS76","32CXT5U14G0GUOGATNQ5NTUUES3U82","robot",50,"critical_lr","different","shoe","L",2,"shoe","shoe-L","shoe","L",1639427427414,1639427431162,3748,"Y","N","male",39,1,NA,43,44,0.977272727272727,"Y",1,1,0,0,1633.65664335664,1462.89804953426,6022.35079195944,1242.75,8.22897764335831,"mixed"
"142","NQL8A16","3QY5DC2MXSHRVNNRS31DM574IL9UFP","3G3AJKPCXLPWSWDDRLXH92K28M6Y45","robot",4,"critical_fb","different","kettle","B",2,"kettle","kettle-B","kettle","B",1638557307505,1638557310445,2940,"Y","N","female",53,1,NA,43,44,0.977272727272727,"Y",1,1,0,0,1633.65664335664,1462.89804953426,6022.35079195944,1142.25,7.98616486033273,"egocentric"
"143","NQL8A16","3QY5DC2MXSHRVNNRS31DM574IL9UFP","3G3AJKPCXLPWSWDDRLXH92K28M6Y45","robot",6,"critical_fb","same","plant","B",2,"plant","plant-B","plant","B",1638557321365,1638557322643,1278,"Y","N","female",53,1,1,43,44,0.977272727272727,"Y",1,1,0,0,1633.65664335664,1462.89804953426,6022.35079195944,1142.25,7.15305163493748,"egocentric"
"144","NQL8A16","3QY5DC2MXSHRVNNRS31DM574IL9UFP","3G3AJKPCXLPWSWDDRLXH92K28M6Y45","robot",9,"critical_lr","different","crab","L",2,"crab","crab-L","crab","L",1638557335315,1638557336375,1060,"Y","N","female",53,1,NA,43,44,0.977272727272727,"Y",1,1,0,0,1633.65664335664,1462.89804953426,6022.35079195944,1142.25,6.96602418710611,"egocentric"
"145","NQL8A16","3QY5DC2MXSHRVNNRS31DM574IL9UFP","3G3AJKPCXLPWSWDDRLXH92K28M6Y45","robot",12,"critical_lr","same","clock","L",2,"clock","clock-L","clock","L",1638557346694,1638557347723,1029,"Y","N","female",53,1,1,43,44,0.977272727272727,"Y",1,1,0,0,1633.65664335664,1462.89804953426,6022.35079195944,1142.25,6.93634273583405,"egocentric"
"146","NQL8A16","3QY5DC2MXSHRVNNRS31DM574IL9UFP","3G3AJKPCXLPWSWDDRLXH92K28M6Y45","robot",16,"critical_fb","different","coconut","B",2,"coconut","coconut-B","coconut","B",1638557366055,1638557366971,916,"Y","N","female",53,1,NA,43,44,0.977272727272727,"Y",1,1,0,0,1633.65664335664,1462.89804953426,6022.35079195944,1142.25,6.82001636467413,"egocentric"
"147","NQL8A16","3QY5DC2MXSHRVNNRS31DM574IL9UFP","3G3AJKPCXLPWSWDDRLXH92K28M6Y45","robot",18,"critical_fb","same","frog","F",2,"frog","frog-F","frog","F",1638557373455,1638557374770,1315,"Y","N","female",53,1,1,43,44,0.977272727272727,"Y",1,1,0,0,1633.65664335664,1462.89804953426,6022.35079195944,1142.25,7.18159194461187,"egocentric"
"148","NQL8A16","3QY5DC2MXSHRVNNRS31DM574IL9UFP","3G3AJKPCXLPWSWDDRLXH92K28M6Y45","robot",22,"critical_fb","different","glove","F",2,"glove","glove-F","glove","F",1638557389814,1638557391318,1504,"Y","N","female",53,1,NA,43,44,0.977272727272727,"Y",1,1,0,0,1633.65664335664,1462.89804953426,6022.35079195944,1142.25,7.31588350450979,"egocentric"
"149","NQL8A16","3QY5DC2MXSHRVNNRS31DM574IL9UFP","3G3AJKPCXLPWSWDDRLXH92K28M6Y45","robot",25,"critical_fb","same","mushroom","B",2,"mushroom","mushroom-B","mushroom","B",1638557405801,1638557406816,1015,"Y","N","female",53,1,1,43,44,0.977272727272727,"Y",1,1,0,0,1633.65664335664,1462.89804953426,6022.35079195944,1142.25,6.92264389147589,"egocentric"
"150","NQL8A16","3QY5DC2MXSHRVNNRS31DM574IL9UFP","3G3AJKPCXLPWSWDDRLXH92K28M6Y45","robot",27,"critical_lr","same","vase","L",2,"vase","vase-L","vase","L",1638557413981,1638557414798,817,"Y","N","female",53,1,1,43,44,0.977272727272727,"Y",1,1,0,0,1633.65664335664,1462.89804953426,6022.35079195944,1142.25,6.70563909486,"egocentric"
"151","NQL8A16","3QY5DC2MXSHRVNNRS31DM574IL9UFP","3G3AJKPCXLPWSWDDRLXH92K28M6Y45","robot",29,"critical_fb","different","cheese","F",2,"cheese","cheese-F","cheese","F",1638557424081,1638557425096,1015,"Y","N","female",53,1,NA,43,44,0.977272727272727,"Y",1,1,0,0,1633.65664335664,1462.89804953426,6022.35079195944,1142.25,6.92264389147589,"egocentric"
"152","NQL8A16","3QY5DC2MXSHRVNNRS31DM574IL9UFP","3G3AJKPCXLPWSWDDRLXH92K28M6Y45","robot",33,"critical_fb","same","key","F",2,"key","key-F","key","F",1638557439059,1638557440376,1317,"Y","N","female",53,1,1,43,44,0.977272727272727,"Y",1,1,0,0,1633.65664335664,1462.89804953426,6022.35079195944,1142.25,7.18311170174328,"egocentric"
"153","NQL8A16","3QY5DC2MXSHRVNNRS31DM574IL9UFP","3G3AJKPCXLPWSWDDRLXH92K28M6Y45","robot",39,"critical_lr","different","stapler","R",2,"stapler","stapler-R","stapler","R",1638557466259,1638557467139,880,"Y","N","female",53,1,NA,43,44,0.977272727272727,"Y",1,1,0,0,1633.65664335664,1462.89804953426,6022.35079195944,1142.25,6.77992190747225,"egocentric"
"154","NQL8A16","3QY5DC2MXSHRVNNRS31DM574IL9UFP","3G3AJKPCXLPWSWDDRLXH92K28M6Y45","robot",41,"critical_lr","same","potato","R",2,"potato","potato-R","potato","R",1638557474598,1638557475321,723,"Y","N","female",53,1,1,43,44,0.977272727272727,"Y",1,1,0,0,1633.65664335664,1462.89804953426,6022.35079195944,1142.25,6.58340922215876,"egocentric"
"155","NQL8A16","3QY5DC2MXSHRVNNRS31DM574IL9UFP","3G3AJKPCXLPWSWDDRLXH92K28M6Y45","robot",43,"critical_lr","different","lemon","R",2,"lemon","lemon-R","lemon","R",1638557481618,1638557482721,1103,"Y","N","female",53,1,NA,43,44,0.977272727272727,"Y",1,1,0,0,1633.65664335664,1462.89804953426,6022.35079195944,1142.25,7.0057890192535,"egocentric"
"156","NQL8A16","3QY5DC2MXSHRVNNRS31DM574IL9UFP","3G3AJKPCXLPWSWDDRLXH92K28M6Y45","robot",46,"critical_lr","same","cap","R",2,"cap","cap-R","cap","R",1638557493700,1638557494288,588,"Y","N","female",53,1,1,43,44,0.977272727272727,"Y",1,1,0,0,1633.65664335664,1462.89804953426,6022.35079195944,1142.25,6.37672694789863,"egocentric"
"157","NQL8A16","3QY5DC2MXSHRVNNRS31DM574IL9UFP","3G3AJKPCXLPWSWDDRLXH92K28M6Y45","robot",50,"critical_lr","different","shoe","L",2,"shoe","shoe-L","shoe","L",1638557508410,1638557509186,776,"Y","N","female",53,1,NA,43,44,0.977272727272727,"Y",1,1,0,0,1633.65664335664,1462.89804953426,6022.35079195944,1142.25,6.65415252018322,"egocentric"
"158","0E3JA19","3L4D84MIL0P2V333BULZIOA6IGNHJ6","3511RHPADVBJT38CJI44NNTGRR6LRF","robot",7,"critical_lr","same","glove","L",2,"glove","glove-L","glove","L",1639163635591,1639163639615,4024,"Y","N","female",25,1,1,44,44,1,"Y",1,1,0,0,1633.65664335664,1462.89804953426,6022.35079195944,2274.3125,8.30003171177957,"egocentric"
"159","0E3JA19","3L4D84MIL0P2V333BULZIOA6IGNHJ6","3511RHPADVBJT38CJI44NNTGRR6LRF","robot",11,"critical_fb","same","vase","F",2,"vase","vase-F","vase","F",1639163661190,1639163664290,3100,"Y","N","female",25,1,1,44,44,1,"Y",1,1,0,0,1633.65664335664,1462.89804953426,6022.35079195944,2274.3125,8.03915739047324,"egocentric"
"160","0E3JA19","3L4D84MIL0P2V333BULZIOA6IGNHJ6","3511RHPADVBJT38CJI44NNTGRR6LRF","robot",14,"critical_fb","same","stapler","B",2,"stapler","stapler-B","stapler","B",1639163680861,1639163682550,1689,"Y","N","female",25,1,1,44,44,1,"Y",1,1,0,0,1633.65664335664,1462.89804953426,6022.35079195944,2274.3125,7.4318919168078,"egocentric"
"161","0E3JA19","3L4D84MIL0P2V333BULZIOA6IGNHJ6","3511RHPADVBJT38CJI44NNTGRR6LRF","robot",18,"critical_fb","different","clock","B",2,"clock","clock-B","clock","B",1639163702271,1639163704767,2496,"Y","N","female",25,1,NA,44,44,1,"Y",1,1,0,0,1633.65664335664,1462.89804953426,6022.35079195944,2274.3125,7.82244472948932,"egocentric"
"162","0E3JA19","3L4D84MIL0P2V333BULZIOA6IGNHJ6","3511RHPADVBJT38CJI44NNTGRR6LRF","robot",20,"critical_fb","different","potato","F",2,"potato","potato-F","potato","F",1639163712492,1639163715920,3428,"Y","N","female",25,1,NA,44,44,1,"Y",1,1,0,0,1633.65664335664,1462.89804953426,6022.35079195944,2274.3125,8.13973227971767,"egocentric"
"163","0E3JA19","3L4D84MIL0P2V333BULZIOA6IGNHJ6","3511RHPADVBJT38CJI44NNTGRR6LRF","robot",24,"critical_fb","different","lemon","B",2,"lemon","lemon-B","lemon","B",1639163734713,1639163738197,3484,"Y","N","female",25,1,NA,44,44,1,"Y",1,1,0,0,1633.65664335664,1462.89804953426,6022.35079195944,2274.3125,8.15593633797239,"egocentric"
"164","0E3JA19","3L4D84MIL0P2V333BULZIOA6IGNHJ6","3511RHPADVBJT38CJI44NNTGRR6LRF","robot",27,"critical_fb","same","cap","B",2,"cap","cap-B","cap","B",1639163749717,1639163750952,1235,"Y","N","female",25,1,1,44,44,1,"Y",1,1,0,0,1633.65664335664,1462.89804953426,6022.35079195944,2274.3125,7.11882624906208,"egocentric"
"165","0E3JA19","3L4D84MIL0P2V333BULZIOA6IGNHJ6","3511RHPADVBJT38CJI44NNTGRR6LRF","robot",29,"critical_lr","same","cheese","R",2,"cheese","cheese-R","cheese","R",1639163758267,1639163759376,1109,"Y","N","female",25,1,1,44,44,1,"Y",1,1,0,0,1633.65664335664,1462.89804953426,6022.35079195944,2274.3125,7.01121398735037,"egocentric"
"166","0E3JA19","3L4D84MIL0P2V333BULZIOA6IGNHJ6","3511RHPADVBJT38CJI44NNTGRR6LRF","robot",31,"critical_lr","different","frog","R",2,"frog","frog-R","frog","R",1639163766608,1639163767733,1125,"Y","N","female",25,1,NA,44,44,1,"Y",1,1,0,0,1633.65664335664,1462.89804953426,6022.35079195944,2274.3125,7.02553831463852,"egocentric"
"167","0E3JA19","3L4D84MIL0P2V333BULZIOA6IGNHJ6","3511RHPADVBJT38CJI44NNTGRR6LRF","robot",35,"critical_lr","same","key","L",2,"key","key-L","key","L",1639163786230,1639163788225,1995,"Y","N","female",25,1,1,44,44,1,"Y",1,1,0,0,1633.65664335664,1462.89804953426,6022.35079195944,2274.3125,7.59839932932396,"egocentric"
"168","0E3JA19","3L4D84MIL0P2V333BULZIOA6IGNHJ6","3511RHPADVBJT38CJI44NNTGRR6LRF","robot",39,"critical_fb","different","crab","F",2,"crab","crab-F","crab","F",1639163805780,1639163807739,1959,"Y","N","female",25,1,NA,44,44,1,"Y",1,1,0,0,1633.65664335664,1462.89804953426,6022.35079195944,2274.3125,7.58018941794454,"egocentric"
"169","0E3JA19","3L4D84MIL0P2V333BULZIOA6IGNHJ6","3511RHPADVBJT38CJI44NNTGRR6LRF","robot",42,"critical_lr","different","plant","L",2,"plant","plant-L","plant","L",1639163820872,1639163823353,2481,"Y","N","female",25,1,NA,44,44,1,"Y",1,1,0,0,1633.65664335664,1462.89804953426,6022.35079195944,2274.3125,7.8164169836918,"egocentric"
"170","0E3JA19","3L4D84MIL0P2V333BULZIOA6IGNHJ6","3511RHPADVBJT38CJI44NNTGRR6LRF","robot",44,"critical_lr","different","mushroom","L",2,"mushroom","mushroom-L","mushroom","L",1639163832991,1639163834712,1721,"Y","N","female",25,1,NA,44,44,1,"Y",1,1,0,0,1633.65664335664,1462.89804953426,6022.35079195944,2274.3125,7.45066079621154,"egocentric"
"171","0E3JA19","3L4D84MIL0P2V333BULZIOA6IGNHJ6","3511RHPADVBJT38CJI44NNTGRR6LRF","robot",46,"critical_lr","same","kettle","R",2,"kettle","kettle-R","kettle","R",1639163842890,1639163844811,1921,"Y","N","female",25,1,1,44,44,1,"Y",1,1,0,0,1633.65664335664,1462.89804953426,6022.35079195944,2274.3125,7.56060116276856,"egocentric"
"172","0E3JA19","3L4D84MIL0P2V333BULZIOA6IGNHJ6","3511RHPADVBJT38CJI44NNTGRR6LRF","robot",48,"critical_fb","same","shoe","F",2,"shoe","shoe-F","shoe","F",1639163851950,1639163853750,1800,"Y","N","female",25,1,1,44,44,1,"Y",1,1,0,0,1633.65664335664,1462.89804953426,6022.35079195944,2274.3125,7.49554194388426,"egocentric"
"173","0E3JA19","3L4D84MIL0P2V333BULZIOA6IGNHJ6","3511RHPADVBJT38CJI44NNTGRR6LRF","robot",50,"critical_lr","different","coconut","R",2,"coconut","coconut-R","coconut","R",1639163862050,1639163864872,2822,"Y","N","female",25,1,NA,44,44,1,"Y",1,1,0,0,1633.65664335664,1462.89804953426,6022.35079195944,2274.3125,7.94520113241276,"egocentric"
"174","AX1ZA19","39O5D9O87UP0THQYMHFBRQW18AS3C4","3ZRKL6Z1E80F8QUONG7T05T4H87GSO","robot",3,"critical_fb","different","cap","F",2,"cap","cap-F","cap","F",1638818019927,1638818023127,3200,"Y","N","female",57,1,NA,43,43,1,"Y",1,1,0,0,1633.65664335664,1462.89804953426,6022.35079195944,1110.125,8.07090608878782,"egocentric"
"175","AX1ZA19","39O5D9O87UP0THQYMHFBRQW18AS3C4","3ZRKL6Z1E80F8QUONG7T05T4H87GSO","robot",8,"critical_fb","same","clock","F",2,"clock","clock-F","clock","F",1638818040600,1638818043275,2675,"Y","N","female",57,1,1,43,43,1,"Y",1,1,0,0,1633.65664335664,1462.89804953426,6022.35079195944,1110.125,7.89170465933011,"egocentric"
"176","AX1ZA19","39O5D9O87UP0THQYMHFBRQW18AS3C4","3ZRKL6Z1E80F8QUONG7T05T4H87GSO","robot",15,"critical_fb","different","lemon","F",2,"lemon","lemon-F","lemon","F",1638818069347,1638818069976,629,"Y","N","female",57,1,NA,43,43,1,"Y",1,1,0,0,1633.65664335664,1462.89804953426,6022.35079195944,1110.125,6.44413125670044,"egocentric"
"177","AX1ZA19","39O5D9O87UP0THQYMHFBRQW18AS3C4","3ZRKL6Z1E80F8QUONG7T05T4H87GSO","robot",17,"critical_lr","same","cheese","L",2,"cheese","cheese-L","cheese","L",1638818076276,1638818077032,756,"Y","N","female",57,1,1,43,43,1,"Y",1,1,0,0,1633.65664335664,1462.89804953426,6022.35079195944,1110.125,6.62804137617953,"egocentric"
"178","AX1ZA19","39O5D9O87UP0THQYMHFBRQW18AS3C4","3ZRKL6Z1E80F8QUONG7T05T4H87GSO","robot",20,"critical_lr","different","plant","L",2,"plant","plant-L","plant","L",1638818087088,1638818087850,762,"Y","N","female",57,1,NA,43,43,1,"Y",1,1,0,0,1633.65664335664,1462.89804953426,6022.35079195944,1110.125,6.63594655568665,"egocentric"
"179","AX1ZA19","39O5D9O87UP0THQYMHFBRQW18AS3C4","3ZRKL6Z1E80F8QUONG7T05T4H87GSO","robot",23,"critical_fb","same","shoe","B",2,"shoe","shoe-B","shoe","B",1638818097934,1638818098634,700,"Y","N","female",57,1,1,43,43,1,"Y",1,1,0,0,1633.65664335664,1462.89804953426,6022.35079195944,1110.125,6.5510803350434,"egocentric"
"180","AX1ZA19","39O5D9O87UP0THQYMHFBRQW18AS3C4","3ZRKL6Z1E80F8QUONG7T05T4H87GSO","robot",25,"critical_fb","same","stapler","B",2,"stapler","stapler-B","stapler","B",1638818106630,1638818107462,832,"Y","N","female",57,1,1,43,43,1,"Y",1,1,0,0,1633.65664335664,1462.89804953426,6022.35079195944,1110.125,6.72383244082121,"egocentric"
"181","AX1ZA19","39O5D9O87UP0THQYMHFBRQW18AS3C4","3ZRKL6Z1E80F8QUONG7T05T4H87GSO","robot",27,"critical_lr","different","key","L",2,"key","key-L","key","L",1638818114017,1638818114785,768,"Y","N","female",57,1,NA,43,43,1,"Y",1,1,0,0,1633.65664335664,1462.89804953426,6022.35079195944,1110.125,6.64378973314767,"egocentric"
"182","AX1ZA19","39O5D9O87UP0THQYMHFBRQW18AS3C4","3ZRKL6Z1E80F8QUONG7T05T4H87GSO","robot",32,"critical_lr","different","kettle","R",2,"kettle","kettle-R","kettle","R",1638818133478,1638818134179,701,"Y","N","female",57,1,NA,43,43,1,"Y",1,1,0,0,1633.65664335664,1462.89804953426,6022.35079195944,1110.125,6.55250788703459,"egocentric"
"183","AX1ZA19","39O5D9O87UP0THQYMHFBRQW18AS3C4","3ZRKL6Z1E80F8QUONG7T05T4H87GSO","robot",35,"critical_fb","different","potato","B",2,"potato","potato-B","potato","B",1638818144377,1638818144913,536,"Y","N","female",57,1,NA,43,43,1,"Y",1,1,0,0,1633.65664335664,1462.89804953426,6022.35079195944,1110.125,6.2841341610708,"egocentric"
"184","AX1ZA19","39O5D9O87UP0THQYMHFBRQW18AS3C4","3ZRKL6Z1E80F8QUONG7T05T4H87GSO","robot",37,"critical_fb","same","vase","F",2,"vase","vase-F","vase","F",1638818151332,1638818152153,821,"Y","N","female",57,1,1,43,43,1,"Y",1,1,0,0,1633.65664335664,1462.89804953426,6022.35079195944,1110.125,6.71052310945243,"egocentric"
"185","AX1ZA19","39O5D9O87UP0THQYMHFBRQW18AS3C4","3ZRKL6Z1E80F8QUONG7T05T4H87GSO","robot",40,"critical_lr","same","mushroom","R",2,"mushroom","mushroom-R","mushroom","R",1638818162708,1638818165663,2955,"Y","N","female",57,1,1,43,43,1,"Y",1,1,0,0,1633.65664335664,1462.89804953426,6022.35079195944,1110.125,7.9912539298402,"egocentric"
"186","AX1ZA19","39O5D9O87UP0THQYMHFBRQW18AS3C4","3ZRKL6Z1E80F8QUONG7T05T4H87GSO","robot",44,"critical_lr","same","coconut","R",2,"coconut","coconut-R","coconut","R",1638818179995,1638818180810,815,"Y","N","female",57,1,1,43,43,1,"Y",1,1,0,0,1633.65664335664,1462.89804953426,6022.35079195944,1110.125,6.70318811324086,"egocentric"
"187","AX1ZA19","39O5D9O87UP0THQYMHFBRQW18AS3C4","3ZRKL6Z1E80F8QUONG7T05T4H87GSO","robot",46,"critical_fb","different","crab","B",2,"crab","crab-B","crab","B",1638818186644,1638818187131,487,"Y","N","female",57,1,NA,43,43,1,"Y",1,1,0,0,1633.65664335664,1462.89804953426,6022.35079195944,1110.125,6.18826412308259,"egocentric"
"188","AX1ZA19","39O5D9O87UP0THQYMHFBRQW18AS3C4","3ZRKL6Z1E80F8QUONG7T05T4H87GSO","robot",48,"critical_lr","different","frog","R",2,"frog","frog-R","frog","R",1638818193146,1638818193768,622,"Y","N","female",57,1,NA,43,43,1,"Y",1,1,0,0,1633.65664335664,1462.89804953426,6022.35079195944,1110.125,6.43294009273918,"egocentric"
"189","AX1ZA19","39O5D9O87UP0THQYMHFBRQW18AS3C4","3ZRKL6Z1E80F8QUONG7T05T4H87GSO","robot",50,"critical_lr","same","glove","L",2,"glove","glove-L","glove","L",1638818200755,1638818201258,503,"Y","N","female",57,1,1,43,43,1,"Y",1,1,0,0,1633.65664335664,1462.89804953426,6022.35079195944,1110.125,6.22059017009974,"egocentric"
"190","L1ESA19","3RXCAC0YISMZBQC90K6Q8YPRN1R8GH","3SX4X51T806Z07PSUZYAKE80MRVAOJ","robot",5,"critical_lr","different","vase","L",2,"vase","vase-L","vase","L",1639082312377,1639082313461,1084,"Y","N","male",52,1,NA,42,43,0.976744186046512,"Y",1,1,0,0,1633.65664335664,1462.89804953426,6022.35079195944,1174.8125,6.98841318199959,"egocentric"
"191","L1ESA19","3RXCAC0YISMZBQC90K6Q8YPRN1R8GH","3SX4X51T806Z07PSUZYAKE80MRVAOJ","robot",8,"critical_lr","same","cap","L",2,"cap","cap-L","cap","L",1639082327891,1639082328989,1098,"Y","N","male",52,1,1,42,43,0.976744186046512,"Y",1,1,0,0,1633.65664335664,1462.89804953426,6022.35079195944,1174.8125,7.00124562206948,"egocentric"
"192","L1ESA19","3RXCAC0YISMZBQC90K6Q8YPRN1R8GH","3SX4X51T806Z07PSUZYAKE80MRVAOJ","robot",10,"critical_lr","same","shoe","R",2,"shoe","shoe-R","shoe","R",1639082336761,1639082337728,967,"Y","N","male",52,1,1,42,43,0.976744186046512,"Y",1,1,0,0,1633.65664335664,1462.89804953426,6022.35079195944,1174.8125,6.87419849545329,"egocentric"
"193","L1ESA19","3RXCAC0YISMZBQC90K6Q8YPRN1R8GH","3SX4X51T806Z07PSUZYAKE80MRVAOJ","robot",17,"critical_fb","same","plant","B",2,"plant","plant-B","plant","B",1639082363658,1639082366364,2706,"Y","N","male",52,1,1,42,43,0.976744186046512,"Y",1,1,0,0,1633.65664335664,1462.89804953426,6022.35079195944,1174.8125,7.90322680873073,"egocentric"
"194","L1ESA19","3RXCAC0YISMZBQC90K6Q8YPRN1R8GH","3SX4X51T806Z07PSUZYAKE80MRVAOJ","robot",20,"critical_fb","different","key","B",2,"key","key-B","key","B",1639082378821,1639082379856,1035,"Y","N","male",52,1,NA,42,43,0.976744186046512,"Y",1,1,0,0,1633.65664335664,1462.89804953426,6022.35079195944,1174.8125,6.94215670569947,"egocentric"
"195","L1ESA19","3RXCAC0YISMZBQC90K6Q8YPRN1R8GH","3SX4X51T806Z07PSUZYAKE80MRVAOJ","robot",24,"critical_fb","different","frog","F",2,"frog","frog-F","frog","F",1639082395475,1639082396252,777,"Y","N","male",52,1,NA,42,43,0.976744186046512,"Y",1,1,0,0,1633.65664335664,1462.89804953426,6022.35079195944,1174.8125,6.65544035036765,"egocentric"
"196","L1ESA19","3RXCAC0YISMZBQC90K6Q8YPRN1R8GH","3SX4X51T806Z07PSUZYAKE80MRVAOJ","robot",26,"critical_fb","different","cheese","F",2,"cheese","cheese-F","cheese","F",1639082402881,1639082403757,876,"Y","N","male",52,1,NA,42,43,0.976744186046512,"Y",1,1,0,0,1633.65664335664,1462.89804953426,6022.35079195944,1174.8125,6.77536609093639,"egocentric"
"197","L1ESA19","3RXCAC0YISMZBQC90K6Q8YPRN1R8GH","3SX4X51T806Z07PSUZYAKE80MRVAOJ","robot",28,"critical_fb","different","kettle","B",2,"kettle","kettle-B","kettle","B",1639082409794,1639082410095,301,"Y","N","male",52,1,NA,42,43,0.976744186046512,"Y",1,1,0,0,1633.65664335664,1462.89804953426,6022.35079195944,1174.8125,5.70711026474888,"egocentric"
"198","L1ESA19","3RXCAC0YISMZBQC90K6Q8YPRN1R8GH","3SX4X51T806Z07PSUZYAKE80MRVAOJ","robot",31,"critical_fb","same","coconut","F",2,"coconut","coconut-F","coconut","F",1639082419998,1639082422322,2324,"Y","N","male",52,1,1,42,43,0.976744186046512,"Y",1,1,0,0,1633.65664335664,1462.89804953426,6022.35079195944,1174.8125,7.7510451179718,"egocentric"
"199","L1ESA19","3RXCAC0YISMZBQC90K6Q8YPRN1R8GH","3SX4X51T806Z07PSUZYAKE80MRVAOJ","robot",33,"critical_lr","same","potato","L",2,"potato","potato-L","potato","L",1639082428483,1639082429258,775,"Y","N","male",52,1,1,42,43,0.976744186046512,"Y",1,1,0,0,1633.65664335664,1462.89804953426,6022.35079195944,1174.8125,6.65286302935335,"egocentric"
"200","L1ESA19","3RXCAC0YISMZBQC90K6Q8YPRN1R8GH","3SX4X51T806Z07PSUZYAKE80MRVAOJ","robot",35,"critical_lr","different","stapler","R",2,"stapler","stapler-R","stapler","R",1639082437680,1639082438098,418,"Y","N","male",52,1,NA,42,43,0.976744186046512,"Y",1,1,0,0,1633.65664335664,1462.89804953426,6022.35079195944,1174.8125,6.03548143252476,"egocentric"
"201","L1ESA19","3RXCAC0YISMZBQC90K6Q8YPRN1R8GH","3SX4X51T806Z07PSUZYAKE80MRVAOJ","robot",39,"critical_lr","same","clock","R",2,"clock","clock-R","clock","R",1639082455248,1639082455793,545,"Y","N","male",52,1,1,42,43,0.976744186046512,"Y",1,1,0,0,1633.65664335664,1462.89804953426,6022.35079195944,1174.8125,6.30078579466324,"egocentric"
"202","L1ESA19","3RXCAC0YISMZBQC90K6Q8YPRN1R8GH","3SX4X51T806Z07PSUZYAKE80MRVAOJ","robot",42,"critical_lr","different","lemon","R",2,"lemon","lemon-R","lemon","R",1639082466075,1639082469469,3394,"Y","N","male",52,1,NA,42,43,0.976744186046512,"Y",1,1,0,0,1633.65664335664,1462.89804953426,6022.35079195944,1174.8125,8.12976444579417,"egocentric"
"203","L1ESA19","3RXCAC0YISMZBQC90K6Q8YPRN1R8GH","3SX4X51T806Z07PSUZYAKE80MRVAOJ","robot",44,"critical_fb","same","glove","F",2,"glove","glove-F","glove","F",1639082476364,1639082477161,797,"Y","N","male",52,1,1,42,43,0.976744186046512,"Y",1,1,0,0,1633.65664335664,1462.89804953426,6022.35079195944,1174.8125,6.68085467879022,"egocentric"
"204","L1ESA19","3RXCAC0YISMZBQC90K6Q8YPRN1R8GH","3SX4X51T806Z07PSUZYAKE80MRVAOJ","robot",48,"critical_lr","different","crab","L",2,"crab","crab-L","crab","L",1639082495682,1639082496239,557,"Y","N","male",52,1,NA,42,43,0.976744186046512,"Y",1,1,0,0,1633.65664335664,1462.89804953426,6022.35079195944,1174.8125,6.32256523992728,"egocentric"
"205","L1ESA19","3RXCAC0YISMZBQC90K6Q8YPRN1R8GH","3SX4X51T806Z07PSUZYAKE80MRVAOJ","robot",50,"critical_fb","same","mushroom","B",2,"mushroom","mushroom-B","mushroom","B",1639082507186,1639082508329,1143,"Y","N","male",52,1,1,42,43,0.976744186046512,"Y",1,1,0,0,1633.65664335664,1462.89804953426,6022.35079195944,1174.8125,7.04141166379481,"egocentric"
"206","LEEXA19","3X31TUMD7YJXMI6PCQUR6G7R5PPL1O","32CXT5U14G0GUOGATNQ5NTUUES3U82","robot",4,"critical_lr","same","coconut","L",2,"coconut","coconut-L","coconut","L",1639419800791,1639419802230,1439,"Y","N","male",67,1,1,44,44,1,"Y",1,1,0,0,1633.65664335664,1462.89804953426,6022.35079195944,886.25,7.27170370688737,"mixed"
"207","LEEXA19","3X31TUMD7YJXMI6PCQUR6G7R5PPL1O","32CXT5U14G0GUOGATNQ5NTUUES3U82","robot",6,"critical_fb","different","stapler","F",2,"stapler","stapler-B","stapler","B",1639419809843,1639419812006,2163,"Y","N","male",67,1,NA,44,44,1,"Y",0,0,1,1,1633.65664335664,1462.89804953426,6022.35079195944,886.25,7.67925142595306,"mixed"
"208","LEEXA19","3X31TUMD7YJXMI6PCQUR6G7R5PPL1O","32CXT5U14G0GUOGATNQ5NTUUES3U82","robot",9,"critical_fb","same","potato","F",2,"potato","potato-F","potato","F",1639419823291,1639419824392,1101,"Y","N","male",67,1,1,44,44,1,"Y",1,1,0,0,1633.65664335664,1462.89804953426,6022.35079195944,886.25,7.00397413672268,"mixed"
"209","LEEXA19","3X31TUMD7YJXMI6PCQUR6G7R5PPL1O","32CXT5U14G0GUOGATNQ5NTUUES3U82","robot",13,"critical_fb","different","crab","B",2,"crab","crab-F","crab","F",1639419839190,1639419840321,1131,"Y","N","male",67,1,NA,44,44,1,"Y",0,0,1,1,1633.65664335664,1462.89804953426,6022.35079195944,886.25,7.03085747611612,"mixed"
"210","LEEXA19","3X31TUMD7YJXMI6PCQUR6G7R5PPL1O","32CXT5U14G0GUOGATNQ5NTUUES3U82","robot",16,"critical_lr","different","cheese","R",2,"cheese","cheese-R","cheese","R",1639419850870,1639419851774,904,"Y","N","male",67,1,NA,44,44,1,"Y",1,1,0,0,1633.65664335664,1462.89804953426,6022.35079195944,886.25,6.80682936039218,"mixed"
"211","LEEXA19","3X31TUMD7YJXMI6PCQUR6G7R5PPL1O","32CXT5U14G0GUOGATNQ5NTUUES3U82","robot",18,"critical_lr","different","mushroom","L",2,"mushroom","mushroom-L","mushroom","L",1639419858714,1639419859198,484,"Y","N","male",67,1,NA,44,44,1,"Y",1,1,0,0,1633.65664335664,1462.89804953426,6022.35079195944,886.25,6.18208490671663,"mixed"
"212","LEEXA19","3X31TUMD7YJXMI6PCQUR6G7R5PPL1O","32CXT5U14G0GUOGATNQ5NTUUES3U82","robot",20,"critical_fb","same","clock","B",2,"clock","clock-B","clock","B",1639419865453,1639419866295,842,"Y","N","male",67,1,1,44,44,1,"Y",1,1,0,0,1633.65664335664,1462.89804953426,6022.35079195944,886.25,6.73578001424233,"mixed"
"213","LEEXA19","3X31TUMD7YJXMI6PCQUR6G7R5PPL1O","32CXT5U14G0GUOGATNQ5NTUUES3U82","robot",24,"critical_lr","same","plant","L",2,"plant","plant-L","plant","L",1639419881223,1639419881756,533,"Y","N","male",67,1,1,44,44,1,"Y",1,1,0,0,1633.65664335664,1462.89804953426,6022.35079195944,886.25,6.27852142416584,"mixed"
"214","LEEXA19","3X31TUMD7YJXMI6PCQUR6G7R5PPL1O","32CXT5U14G0GUOGATNQ5NTUUES3U82","robot",27,"critical_lr","different","frog","R",2,"frog","frog-R","frog","R",1639419893380,1639419893883,503,"Y","N","male",67,1,NA,44,44,1,"Y",1,1,0,0,1633.65664335664,1462.89804953426,6022.35079195944,886.25,6.22059017009974,"mixed"
"215","LEEXA19","3X31TUMD7YJXMI6PCQUR6G7R5PPL1O","32CXT5U14G0GUOGATNQ5NTUUES3U82","robot",29,"critical_fb","same","vase","B",2,"vase","vase-B","vase","B",1639419899819,1639419900519,700,"Y","N","male",67,1,1,44,44,1,"Y",1,1,0,0,1633.65664335664,1462.89804953426,6022.35079195944,886.25,6.5510803350434,"mixed"
"216","LEEXA19","3X31TUMD7YJXMI6PCQUR6G7R5PPL1O","32CXT5U14G0GUOGATNQ5NTUUES3U82","robot",33,"critical_fb","different","cap","B",2,"cap","cap-F","cap","F",1639419912235,1639419912780,545,"Y","N","male",67,1,NA,44,44,1,"Y",0,0,1,1,1633.65664335664,1462.89804953426,6022.35079195944,886.25,6.30078579466324,"mixed"
"217","LEEXA19","3X31TUMD7YJXMI6PCQUR6G7R5PPL1O","32CXT5U14G0GUOGATNQ5NTUUES3U82","robot",36,"critical_lr","same","glove","R",2,"glove","glove-R","glove","R",1639419925415,1639419927004,1589,"Y","N","male",67,1,1,44,44,1,"Y",1,1,0,0,1633.65664335664,1462.89804953426,6022.35079195944,886.25,7.37086016653672,"mixed"
"218","LEEXA19","3X31TUMD7YJXMI6PCQUR6G7R5PPL1O","32CXT5U14G0GUOGATNQ5NTUUES3U82","robot",41,"critical_lr","different","key","L",2,"key","key-L","key","L",1639419946134,1639419946815,681,"Y","N","male",67,1,NA,44,44,1,"Y",1,1,0,0,1633.65664335664,1462.89804953426,6022.35079195944,886.25,6.52356230614951,"mixed"
"219","LEEXA19","3X31TUMD7YJXMI6PCQUR6G7R5PPL1O","32CXT5U14G0GUOGATNQ5NTUUES3U82","robot",44,"critical_fb","same","lemon","F",2,"lemon","lemon-F","lemon","F",1639419956593,1639419956917,324,"Y","N","male",67,1,1,44,44,1,"Y",1,1,0,0,1633.65664335664,1462.89804953426,6022.35079195944,886.25,5.78074351579233,"mixed"
"220","LEEXA19","3X31TUMD7YJXMI6PCQUR6G7R5PPL1O","32CXT5U14G0GUOGATNQ5NTUUES3U82","robot",46,"critical_lr","same","kettle","R",2,"kettle","kettle-R","kettle","R",1639419965095,1639419965766,671,"Y","N","male",67,1,1,44,44,1,"Y",1,1,0,0,1633.65664335664,1462.89804953426,6022.35079195944,886.25,6.50876913697168,"mixed"
"221","LEEXA19","3X31TUMD7YJXMI6PCQUR6G7R5PPL1O","32CXT5U14G0GUOGATNQ5NTUUES3U82","robot",50,"critical_fb","different","shoe","F",2,"shoe","shoe-B","shoe","B",1639419978414,1639419978984,570,"Y","N","male",67,1,NA,44,44,1,"Y",0,0,1,1,1633.65664335664,1462.89804953426,6022.35079195944,886.25,6.3456363608286,"mixed"
"222","QCESA1C","3VNXK88KKDFI7SLEU7BQ8VNCTJ3V9H","3NQUW096N65DP3CQP14IW2TML4O9L2","robot",4,"critical_lr","different","plant","L",2,"plant","plant-L","plant","L",1639010628037,1639010628693,656,"Y","N","male",32,1,NA,42,44,0.954545454545455,"Y",1,1,0,0,1633.65664335664,1462.89804953426,6022.35079195944,1727.6875,6.48616078894409,"mixed"
"223","QCESA1C","3VNXK88KKDFI7SLEU7BQ8VNCTJ3V9H","3NQUW096N65DP3CQP14IW2TML4O9L2","robot",8,"critical_fb","same","vase","B",2,"vase","vase-F","vase","F",1639010641118,1639010646542,5424,"Y","N","male",32,1,0,42,44,0.954545454545455,"Y",0,0,1,1,1633.65664335664,1462.89804953426,6022.35079195944,1727.6875,8.59858882962023,"mixed"
"224","QCESA1C","3VNXK88KKDFI7SLEU7BQ8VNCTJ3V9H","3NQUW096N65DP3CQP14IW2TML4O9L2","robot",12,"critical_lr","different","coconut","L",2,"coconut","coconut-L","coconut","L",1639010660282,1639010660972,690,"Y","N","male",32,1,NA,42,44,0.954545454545455,"Y",1,1,0,0,1633.65664335664,1462.89804953426,6022.35079195944,1727.6875,6.5366915975913,"mixed"
"225","QCESA1C","3VNXK88KKDFI7SLEU7BQ8VNCTJ3V9H","3NQUW096N65DP3CQP14IW2TML4O9L2","robot",16,"critical_fb","different","lemon","B",2,"lemon","lemon-F","lemon","F",1639010675192,1639010677386,2194,"Y","N","male",32,1,NA,42,44,0.954545454545455,"Y",0,0,1,1,1633.65664335664,1462.89804953426,6022.35079195944,1727.6875,7.69348164083518,"mixed"
"226","QCESA1C","3VNXK88KKDFI7SLEU7BQ8VNCTJ3V9H","3NQUW096N65DP3CQP14IW2TML4O9L2","robot",18,"critical_lr","same","frog","L",2,"frog","frog-L","frog","L",1639010684121,1639010685710,1589,"Y","N","male",32,1,1,42,44,0.954545454545455,"Y",1,1,0,0,1633.65664335664,1462.89804953426,6022.35079195944,1727.6875,7.37086016653672,"mixed"
"227","QCESA1C","3VNXK88KKDFI7SLEU7BQ8VNCTJ3V9H","3NQUW096N65DP3CQP14IW2TML4O9L2","robot",21,"critical_lr","same","kettle","L",2,"kettle","kettle-L","kettle","L",1639010698401,1639010699539,1138,"Y","N","male",32,1,1,42,44,0.954545454545455,"Y",1,1,0,0,1633.65664335664,1462.89804953426,6022.35079195944,1727.6875,7.03702761468628,"mixed"
"228","QCESA1C","3VNXK88KKDFI7SLEU7BQ8VNCTJ3V9H","3NQUW096N65DP3CQP14IW2TML4O9L2","robot",23,"critical_lr","different","mushroom","R",2,"mushroom","mushroom-R","mushroom","R",1639010706478,1639010707028,550,"Y","N","male",32,1,NA,42,44,0.954545454545455,"Y",1,1,0,0,1633.65664335664,1462.89804953426,6022.35079195944,1727.6875,6.30991827822652,"mixed"
"229","QCESA1C","3VNXK88KKDFI7SLEU7BQ8VNCTJ3V9H","3NQUW096N65DP3CQP14IW2TML4O9L2","robot",29,"critical_fb","different","cap","F",2,"cap","cap-B","cap","B",1639010734178,1639010736171,1993,"Y","N","male",32,1,NA,42,44,0.954545454545455,"Y",0,0,1,1,1633.65664335664,1462.89804953426,6022.35079195944,1727.6875,7.59739632021279,"mixed"
"230","QCESA1C","3VNXK88KKDFI7SLEU7BQ8VNCTJ3V9H","3NQUW096N65DP3CQP14IW2TML4O9L2","robot",32,"critical_lr","different","cheese","R",2,"cheese","cheese-R","cheese","R",1639010746748,1639010747247,499,"Y","N","male",32,1,NA,42,44,0.954545454545455,"Y",1,1,0,0,1633.65664335664,1462.89804953426,6022.35079195944,1727.6875,6.21260609575152,"mixed"
"231","QCESA1C","3VNXK88KKDFI7SLEU7BQ8VNCTJ3V9H","3NQUW096N65DP3CQP14IW2TML4O9L2","robot",34,"critical_lr","same","glove","R",2,"glove","glove-R","glove","R",1639010754449,1639010756454,2005,"Y","N","male",32,1,1,42,44,0.954545454545455,"Y",1,1,0,0,1633.65664335664,1462.89804953426,6022.35079195944,1727.6875,7.60339933974067,"mixed"
"232","QCESA1C","3VNXK88KKDFI7SLEU7BQ8VNCTJ3V9H","3NQUW096N65DP3CQP14IW2TML4O9L2","robot",38,"critical_fb","different","crab","F",2,"crab","crab-B","crab","B",1639010771586,1639010772402,816,"Y","N","male",32,1,NA,42,44,0.954545454545455,"Y",0,0,1,1,1633.65664335664,1462.89804953426,6022.35079195944,1727.6875,6.70441435496411,"mixed"
"233","QCESA1C","3VNXK88KKDFI7SLEU7BQ8VNCTJ3V9H","3NQUW096N65DP3CQP14IW2TML4O9L2","robot",42,"critical_fb","same","potato","B",2,"potato","potato-B","potato","B",1639010787016,1639010788216,1200,"Y","N","male",32,1,1,42,44,0.954545454545455,"Y",1,1,0,0,1633.65664335664,1462.89804953426,6022.35079195944,1727.6875,7.09007683577609,"mixed"
"234","QCESA1C","3VNXK88KKDFI7SLEU7BQ8VNCTJ3V9H","3NQUW096N65DP3CQP14IW2TML4O9L2","robot",44,"critical_lr","same","key","R",2,"key","key-R","key","R",1639010795266,1639010796139,873,"Y","N","male",32,1,1,42,44,0.954545454545455,"Y",1,1,0,0,1633.65664335664,1462.89804953426,6022.35079195944,1727.6875,6.7719355558396,"mixed"
"235","QCESA1C","3VNXK88KKDFI7SLEU7BQ8VNCTJ3V9H","3NQUW096N65DP3CQP14IW2TML4O9L2","robot",47,"critical_fb","different","shoe","B",2,"shoe","shoe-F","shoe","F",1639010807816,1639010809050,1234,"Y","N","male",32,1,NA,42,44,0.954545454545455,"Y",0,0,1,1,1633.65664335664,1462.89804953426,6022.35079195944,1727.6875,7.11801620446533,"mixed"
"236","QCESA1C","3VNXK88KKDFI7SLEU7BQ8VNCTJ3V9H","3NQUW096N65DP3CQP14IW2TML4O9L2","robot",50,"critical_fb","same","stapler","F",2,"stapler","stapler-F","stapler","F",1639010820216,1639010820844,628,"Y","N","male",32,1,1,42,44,0.954545454545455,"Y",1,1,0,0,1633.65664335664,1462.89804953426,6022.35079195944,1727.6875,6.4425401664682,"mixed"
"237","NU4LA1D","3B837J3LDPT8J00WUT67OT3Z0DPSRU","35O6H0UNLSDOTQMEJQFO47BSVEY5JT","robot",4,"critical_fb","different","potato","B",2,"potato","potato-F","potato","F",1638564511650,1638564515082,3432,"Y","N","female",60,1,NA,44,44,1,"Y",0,0,1,1,1633.65664335664,1462.89804953426,6022.35079195944,1365.25,8.14089846060785,"mixed"
"238","NU4LA1D","3B837J3LDPT8J00WUT67OT3Z0DPSRU","35O6H0UNLSDOTQMEJQFO47BSVEY5JT","robot",8,"critical_lr","same","glove","L",2,"glove","glove-L","glove","L",1638564531290,1638564533953,2663,"Y","N","female",60,1,1,44,44,1,"Y",1,1,0,0,1633.65664335664,1462.89804953426,6022.35079195944,1365.25,7.88720858581393,"mixed"
"239","NU4LA1D","3B837J3LDPT8J00WUT67OT3Z0DPSRU","35O6H0UNLSDOTQMEJQFO47BSVEY5JT","robot",10,"critical_fb","different","clock","F",2,"clock","clock-B","clock","B",1638564540289,1638564541128,839,"Y","N","female",60,1,NA,44,44,1,"Y",0,0,1,1,1633.65664335664,1462.89804953426,6022.35079195944,1365.25,6.73221070646721,"mixed"
"240","NU4LA1D","3B837J3LDPT8J00WUT67OT3Z0DPSRU","35O6H0UNLSDOTQMEJQFO47BSVEY5JT","robot",13,"critical_fb","different","crab","F",2,"crab","crab-B","crab","B",1638564550469,1638564551122,653,"Y","N","female",60,1,NA,44,44,1,"Y",0,0,1,1,1633.65664335664,1462.89804953426,6022.35079195944,1365.25,6.48157712927643,"mixed"
"241","NU4LA1D","3B837J3LDPT8J00WUT67OT3Z0DPSRU","35O6H0UNLSDOTQMEJQFO47BSVEY5JT","robot",19,"critical_lr","different","plant","R",2,"plant","plant-R","plant","R",1638564574838,1638564575717,879,"Y","N","female",60,1,NA,44,44,1,"Y",1,1,0,0,1633.65664335664,1462.89804953426,6022.35079195944,1365.25,6.77878489768518,"mixed"
"242","NU4LA1D","3B837J3LDPT8J00WUT67OT3Z0DPSRU","35O6H0UNLSDOTQMEJQFO47BSVEY5JT","robot",23,"critical_lr","same","cheese","R",2,"cheese","cheese-R","cheese","R",1638564589891,1638564590634,743,"Y","N","female",60,1,1,44,44,1,"Y",1,1,0,0,1633.65664335664,1462.89804953426,6022.35079195944,1365.25,6.61069604471776,"mixed"
"243","NU4LA1D","3B837J3LDPT8J00WUT67OT3Z0DPSRU","35O6H0UNLSDOTQMEJQFO47BSVEY5JT","robot",26,"critical_fb","same","shoe","B",2,"shoe","shoe-B","shoe","B",1638564600142,1638564601531,1389,"Y","N","female",60,1,1,44,44,1,"Y",1,1,0,0,1633.65664335664,1462.89804953426,6022.35079195944,1365.25,7.23633934275434,"mixed"
"244","NU4LA1D","3B837J3LDPT8J00WUT67OT3Z0DPSRU","35O6H0UNLSDOTQMEJQFO47BSVEY5JT","robot",29,"critical_fb","different","lemon","B",2,"lemon","lemon-F","lemon","F",1638564610502,1638564611326,824,"Y","N","female",60,1,NA,44,44,1,"Y",0,0,1,1,1633.65664335664,1462.89804953426,6022.35079195944,1365.25,6.71417052990947,"mixed"
"245","NU4LA1D","3B837J3LDPT8J00WUT67OT3Z0DPSRU","35O6H0UNLSDOTQMEJQFO47BSVEY5JT","robot",34,"critical_lr","different","frog","L",2,"frog","frog-L","frog","L",1638564631600,1638564633285,1685,"Y","N","female",60,1,NA,44,44,1,"Y",1,1,0,0,1633.65664335664,1462.89804953426,6022.35079195944,1365.25,7.42952084278646,"mixed"
"246","NU4LA1D","3B837J3LDPT8J00WUT67OT3Z0DPSRU","35O6H0UNLSDOTQMEJQFO47BSVEY5JT","robot",38,"critical_lr","same","kettle","R",2,"kettle","kettle-R","kettle","R",1638564647700,1638564648302,602,"Y","N","female",60,1,1,44,44,1,"Y",1,1,0,0,1633.65664335664,1462.89804953426,6022.35079195944,1365.25,6.40025744530882,"mixed"
"247","NU4LA1D","3B837J3LDPT8J00WUT67OT3Z0DPSRU","35O6H0UNLSDOTQMEJQFO47BSVEY5JT","robot",40,"critical_lr","same","coconut","L",2,"coconut","coconut-L","coconut","L",1638564654299,1638564654960,661,"Y","N","female",60,1,1,44,44,1,"Y",1,1,0,0,1633.65664335664,1462.89804953426,6022.35079195944,1365.25,6.49375383985169,"mixed"
"248","NU4LA1D","3B837J3LDPT8J00WUT67OT3Z0DPSRU","35O6H0UNLSDOTQMEJQFO47BSVEY5JT","robot",42,"critical_lr","different","mushroom","L",2,"mushroom","mushroom-L","mushroom","L",1638564662359,1638564664003,1644,"Y","N","female",60,1,NA,44,44,1,"Y",1,1,0,0,1633.65664335664,1462.89804953426,6022.35079195944,1365.25,7.40488757561612,"mixed"
"249","NU4LA1D","3B837J3LDPT8J00WUT67OT3Z0DPSRU","35O6H0UNLSDOTQMEJQFO47BSVEY5JT","robot",44,"critical_fb","same","cap","B",2,"cap","cap-B","cap","B",1638564670549,1638564672329,1780,"Y","N","female",60,1,1,44,44,1,"Y",1,1,0,0,1633.65664335664,1462.89804953426,6022.35079195944,1365.25,7.48436864328613,"mixed"
"250","NU4LA1D","3B837J3LDPT8J00WUT67OT3Z0DPSRU","35O6H0UNLSDOTQMEJQFO47BSVEY5JT","robot",46,"critical_lr","different","key","R",2,"key","key-R","key","R",1638564678280,1638564679638,1358,"Y","N","female",60,1,NA,44,44,1,"Y",1,1,0,0,1633.65664335664,1462.89804953426,6022.35079195944,1365.25,7.21376830811864,"mixed"
"251","NU4LA1D","3B837J3LDPT8J00WUT67OT3Z0DPSRU","35O6H0UNLSDOTQMEJQFO47BSVEY5JT","robot",48,"critical_fb","same","stapler","F",2,"stapler","stapler-F","stapler","F",1638564686940,1638564687964,1024,"Y","N","female",60,1,1,44,44,1,"Y",1,1,0,0,1633.65664335664,1462.89804953426,6022.35079195944,1365.25,6.93147180559945,"mixed"
"252","NU4LA1D","3B837J3LDPT8J00WUT67OT3Z0DPSRU","35O6H0UNLSDOTQMEJQFO47BSVEY5JT","robot",50,"critical_fb","same","vase","F",2,"vase","vase-F","vase","F",1638564694589,1638564696257,1668,"Y","N","female",60,1,1,44,44,1,"Y",1,1,0,0,1633.65664335664,1462.89804953426,6022.35079195944,1365.25,7.41938058291869,"mixed"
"253","75MRA1E","3NQL1CS15S5X8TTM2J367CG32S3VYL","3A9LA2FRWSB143BY1WVYKDMXBQ4XH0","robot",8,"critical_lr","different","plant","R",2,"plant","plant-R","plant","R",1638998101153,1638998102225,1072,"Y","N","male",48,1,NA,44,44,1,"Y",1,1,0,0,1633.65664335664,1462.89804953426,6022.35079195944,1262.9375,6.97728134163075,"othercentric"
"254","75MRA1E","3NQL1CS15S5X8TTM2J367CG32S3VYL","3A9LA2FRWSB143BY1WVYKDMXBQ4XH0","robot",11,"critical_lr","same","key","L",2,"key","key-L","key","L",1638998113611,1638998115626,2015,"Y","N","male",48,1,1,44,44,1,"Y",1,1,0,0,1633.65664335664,1462.89804953426,6022.35079195944,1262.9375,7.60837447438078,"othercentric"
"255","75MRA1E","3NQL1CS15S5X8TTM2J367CG32S3VYL","3A9LA2FRWSB143BY1WVYKDMXBQ4XH0","robot",13,"critical_fb","same","lemon","B",2,"lemon","lemon-B","lemon","B",1638998121888,1638998124004,2116,"Y","N","male",48,1,1,44,44,1,"Y",1,1,0,0,1633.65664335664,1462.89804953426,6022.35079195944,1262.9375,7.65728279297819,"othercentric"
"256","75MRA1E","3NQL1CS15S5X8TTM2J367CG32S3VYL","3A9LA2FRWSB143BY1WVYKDMXBQ4XH0","robot",16,"critical_fb","different","vase","B",2,"vase","vase-F","vase","F",1638998134547,1638998135804,1257,"Y","N","male",48,1,NA,44,44,1,"Y",0,0,1,1,1633.65664335664,1462.89804953426,6022.35079195944,1262.9375,7.13648320859025,"othercentric"
"257","75MRA1E","3NQL1CS15S5X8TTM2J367CG32S3VYL","3A9LA2FRWSB143BY1WVYKDMXBQ4XH0","robot",18,"critical_fb","different","cap","F",2,"cap","cap-B","cap","B",1638998142808,1638998143537,729,"Y","N","male",48,1,NA,44,44,1,"Y",0,0,1,1,1633.65664335664,1462.89804953426,6022.35079195944,1262.9375,6.59167373200866,"othercentric"
"258","75MRA1E","3NQL1CS15S5X8TTM2J367CG32S3VYL","3A9LA2FRWSB143BY1WVYKDMXBQ4XH0","robot",21,"critical_lr","different","frog","L",2,"frog","frog-R","frog","R",1638998154348,1638998155404,1056,"Y","N","male",48,1,NA,44,44,1,"Y",0,0,1,1,1633.65664335664,1462.89804953426,6022.35079195944,1262.9375,6.96224346426621,"othercentric"
"259","75MRA1E","3NQL1CS15S5X8TTM2J367CG32S3VYL","3A9LA2FRWSB143BY1WVYKDMXBQ4XH0","robot",24,"critical_fb","same","potato","F",2,"potato","potato-F","potato","F",1638998164698,1638998166104,1406,"Y","N","male",48,1,1,44,44,1,"Y",1,1,0,0,1633.65664335664,1462.89804953426,6022.35079195944,1262.9375,7.24850407237061,"othercentric"
"260","75MRA1E","3NQL1CS15S5X8TTM2J367CG32S3VYL","3A9LA2FRWSB143BY1WVYKDMXBQ4XH0","robot",26,"critical_fb","same","crab","F",2,"crab","crab-F","crab","F",1638998173297,1638998174204,907,"Y","N","male",48,1,1,44,44,1,"Y",1,1,0,0,1633.65664335664,1462.89804953426,6022.35079195944,1262.9375,6.81014245011514,"othercentric"
"261","75MRA1E","3NQL1CS15S5X8TTM2J367CG32S3VYL","3A9LA2FRWSB143BY1WVYKDMXBQ4XH0","robot",29,"critical_lr","same","kettle","R",2,"kettle","kettle-R","kettle","R",1638998185280,1638998186158,878,"Y","N","male",48,1,1,44,44,1,"Y",1,1,0,0,1633.65664335664,1462.89804953426,6022.35079195944,1262.9375,6.77764659363512,"othercentric"
"262","75MRA1E","3NQL1CS15S5X8TTM2J367CG32S3VYL","3A9LA2FRWSB143BY1WVYKDMXBQ4XH0","robot",31,"critical_fb","different","clock","B",2,"clock","clock-F","clock","F",1638998192181,1638998193775,1594,"Y","N","male",48,1,NA,44,44,1,"Y",0,0,1,1,1633.65664335664,1462.89804953426,6022.35079195944,1262.9375,7.37400185935016,"othercentric"
"263","75MRA1E","3NQL1CS15S5X8TTM2J367CG32S3VYL","3A9LA2FRWSB143BY1WVYKDMXBQ4XH0","robot",33,"critical_fb","different","stapler","F",2,"stapler","stapler-B","stapler","B",1638998200381,1638998202042,1661,"Y","N","male",48,1,NA,44,44,1,"Y",0,0,1,1,1633.65664335664,1462.89804953426,6022.35079195944,1262.9375,7.41517510961329,"othercentric"
"264","75MRA1E","3NQL1CS15S5X8TTM2J367CG32S3VYL","3A9LA2FRWSB143BY1WVYKDMXBQ4XH0","robot",35,"critical_lr","different","coconut","L",2,"coconut","coconut-R","coconut","R",1638998208501,1638998209542,1041,"Y","N","male",48,1,NA,44,44,1,"Y",0,0,1,1,1633.65664335664,1462.89804953426,6022.35079195944,1262.9375,6.94793706861497,"othercentric"
"265","75MRA1E","3NQL1CS15S5X8TTM2J367CG32S3VYL","3A9LA2FRWSB143BY1WVYKDMXBQ4XH0","robot",39,"critical_fb","same","shoe","B",2,"shoe","shoe-B","shoe","B",1638998223831,1638998224525,694,"Y","N","male",48,1,1,44,44,1,"Y",1,1,0,0,1633.65664335664,1462.89804953426,6022.35079195944,1262.9375,6.5424719605068,"othercentric"
"266","75MRA1E","3NQL1CS15S5X8TTM2J367CG32S3VYL","3A9LA2FRWSB143BY1WVYKDMXBQ4XH0","robot",42,"critical_lr","same","mushroom","R",2,"mushroom","mushroom-R","mushroom","R",1638998235643,1638998236658,1015,"Y","N","male",48,1,1,44,44,1,"Y",1,1,0,0,1633.65664335664,1462.89804953426,6022.35079195944,1262.9375,6.92264389147589,"othercentric"
"267","75MRA1E","3NQL1CS15S5X8TTM2J367CG32S3VYL","3A9LA2FRWSB143BY1WVYKDMXBQ4XH0","robot",47,"critical_lr","same","glove","L",2,"glove","glove-L","glove","L",1638998258941,1638998260859,1918,"Y","N","male",48,1,1,44,44,1,"Y",1,1,0,0,1633.65664335664,1462.89804953426,6022.35079195944,1262.9375,7.55903825544338,"othercentric"
"268","75MRA1E","3NQL1CS15S5X8TTM2J367CG32S3VYL","3A9LA2FRWSB143BY1WVYKDMXBQ4XH0","robot",49,"critical_lr","different","cheese","R",2,"cheese","cheese-L","cheese","L",1638998266744,1638998267592,848,"Y","N","male",48,1,NA,44,44,1,"Y",0,0,1,1,1633.65664335664,1462.89804953426,6022.35079195944,1262.9375,6.7428806357919,"othercentric"
"269","9DTAA1F","3QBD8R3Z22GMK265C0TLWVIOCI14O6","3NI0WFPPI9DDAOL621FNE8AWS9I600","robot",4,"critical_fb","same","cap","F",2,"cap","cap-F","cap","F",1639510964563,1639510968132,3569,"Y","N","male",46,1,1,44,44,1,"Y",1,1,0,0,1633.65664335664,1462.89804953426,6022.35079195944,1508.3125,8.18004072349016,"othercentric"
"270","9DTAA1F","3QBD8R3Z22GMK265C0TLWVIOCI14O6","3NI0WFPPI9DDAOL621FNE8AWS9I600","robot",12,"critical_lr","different","frog","R",2,"frog","frog-L","frog","L",1639511001802,1639511004967,3165,"Y","N","male",46,1,NA,44,44,1,"Y",0,0,1,1,1633.65664335664,1462.89804953426,6022.35079195944,1508.3125,8.05990833457828,"othercentric"
"271","9DTAA1F","3QBD8R3Z22GMK265C0TLWVIOCI14O6","3NI0WFPPI9DDAOL621FNE8AWS9I600","robot",15,"critical_lr","same","cheese","L",2,"cheese","cheese-L","cheese","L",1639511016882,1639511018614,1732,"Y","N","male",46,1,1,44,44,1,"Y",1,1,0,0,1633.65664335664,1462.89804953426,6022.35079195944,1508.3125,7.45703208912238,"othercentric"
"272","9DTAA1F","3QBD8R3Z22GMK265C0TLWVIOCI14O6","3NI0WFPPI9DDAOL621FNE8AWS9I600","robot",17,"critical_lr","different","mushroom","R",2,"mushroom","mushroom-L","mushroom","L",1639511027402,1639511028377,975,"Y","N","male",46,1,NA,44,44,1,"Y",0,0,1,1,1633.65664335664,1462.89804953426,6022.35079195944,1508.3125,6.88243747099785,"othercentric"
"273","9DTAA1F","3QBD8R3Z22GMK265C0TLWVIOCI14O6","3NI0WFPPI9DDAOL621FNE8AWS9I600","robot",22,"critical_fb","same","potato","F",2,"potato","potato-F","potato","F",1639511048862,1639511049846,984,"Y","N","male",46,1,1,44,44,1,"Y",1,1,0,0,1633.65664335664,1462.89804953426,6022.35079195944,1508.3125,6.89162589705225,"othercentric"
"274","9DTAA1F","3QBD8R3Z22GMK265C0TLWVIOCI14O6","3NI0WFPPI9DDAOL621FNE8AWS9I600","robot",26,"critical_lr","different","key","L",2,"key","key-R","key","R",1639511069502,1639511071384,1882,"Y","N","male",46,1,NA,44,44,1,"Y",0,0,1,1,1633.65664335664,1462.89804953426,6022.35079195944,1508.3125,7.54009032014532,"othercentric"
"275","9DTAA1F","3QBD8R3Z22GMK265C0TLWVIOCI14O6","3NI0WFPPI9DDAOL621FNE8AWS9I600","robot",29,"critical_lr","same","coconut","R",2,"coconut","coconut-R","coconut","R",1639511082222,1639511084113,1891,"Y","N","male",46,1,1,44,44,1,"Y",1,1,0,0,1633.65664335664,1462.89804953426,6022.35079195944,1508.3125,7.54486106865846,"othercentric"
"276","9DTAA1F","3QBD8R3Z22GMK265C0TLWVIOCI14O6","3NI0WFPPI9DDAOL621FNE8AWS9I600","robot",31,"critical_fb","different","crab","B",2,"crab","crab-F","crab","F",1639511091332,1639511092672,1340,"Y","N","male",46,1,NA,44,44,1,"Y",0,0,1,1,1633.65664335664,1462.89804953426,6022.35079195944,1508.3125,7.20042489294496,"othercentric"
"277","9DTAA1F","3QBD8R3Z22GMK265C0TLWVIOCI14O6","3NI0WFPPI9DDAOL621FNE8AWS9I600","robot",33,"critical_lr","same","plant","R",2,"plant","plant-R","plant","R",1639511099863,1639511100197,334,"Y","N","male",46,1,1,44,44,1,"Y",1,1,0,0,1633.65664335664,1462.89804953426,6022.35079195944,1508.3125,5.8111409929767,"othercentric"
"278","9DTAA1F","3QBD8R3Z22GMK265C0TLWVIOCI14O6","3NI0WFPPI9DDAOL621FNE8AWS9I600","robot",35,"critical_lr","same","kettle","L",2,"kettle","kettle-L","kettle","L",1639511105922,1639511107102,1180,"Y","N","male",46,1,1,44,44,1,"Y",1,1,0,0,1633.65664335664,1462.89804953426,6022.35079195944,1508.3125,7.07326971745971,"othercentric"
"279","9DTAA1F","3QBD8R3Z22GMK265C0TLWVIOCI14O6","3NI0WFPPI9DDAOL621FNE8AWS9I600","robot",38,"critical_lr","different","glove","L",2,"glove","glove-R","glove","R",1639511117362,1639511118635,1273,"Y","N","male",46,1,NA,44,44,1,"Y",0,0,1,1,1633.65664335664,1462.89804953426,6022.35079195944,1508.3125,7.14913159855741,"othercentric"
"280","9DTAA1F","3QBD8R3Z22GMK265C0TLWVIOCI14O6","3NI0WFPPI9DDAOL621FNE8AWS9I600","robot",40,"critical_fb","same","clock","B",2,"clock","clock-B","clock","B",1639511127492,1639511129892,2400,"Y","N","male",46,1,1,44,44,1,"Y",1,1,0,0,1633.65664335664,1462.89804953426,6022.35079195944,1508.3125,7.78322401633604,"othercentric"
"281","9DTAA1F","3QBD8R3Z22GMK265C0TLWVIOCI14O6","3NI0WFPPI9DDAOL621FNE8AWS9I600","robot",42,"critical_fb","different","shoe","F",2,"shoe","shoe-B","shoe","B",1639511136592,1639511137283,691,"Y","N","male",46,1,NA,44,44,1,"Y",0,0,1,1,1633.65664335664,1462.89804953426,6022.35079195944,1508.3125,6.53813982376767,"othercentric"
"282","9DTAA1F","3QBD8R3Z22GMK265C0TLWVIOCI14O6","3NI0WFPPI9DDAOL621FNE8AWS9I600","robot",44,"critical_fb","same","vase","B",2,"vase","vase-B","vase","B",1639511143712,1639511144823,1111,"Y","N","male",46,1,1,44,44,1,"Y",1,1,0,0,1633.65664335664,1462.89804953426,6022.35079195944,1508.3125,7.01301578963963,"othercentric"
"283","9DTAA1F","3QBD8R3Z22GMK265C0TLWVIOCI14O6","3NI0WFPPI9DDAOL621FNE8AWS9I600","robot",47,"critical_fb","different","stapler","B",2,"stapler","stapler-F","stapler","F",1639511154831,1639511155984,1153,"Y","N","male",46,1,NA,44,44,1,"Y",0,0,1,1,1633.65664335664,1462.89804953426,6022.35079195944,1508.3125,7.05012252026906,"othercentric"
"284","9DTAA1F","3QBD8R3Z22GMK265C0TLWVIOCI14O6","3NI0WFPPI9DDAOL621FNE8AWS9I600","robot",50,"critical_fb","different","lemon","F",2,"lemon","lemon-B","lemon","B",1639511164992,1639511165445,453,"Y","N","male",46,1,NA,44,44,1,"Y",0,0,1,1,1633.65664335664,1462.89804953426,6022.35079195944,1508.3125,6.11589212548303,"othercentric"
"285","37T1A1H","39JEC7537VYK5QSH6RLHALOKZ4QCVZ","3A9LA2FRWSB143BY1WVYKDMXBQ4XH0","robot",4,"critical_fb","different","stapler","F",2,"stapler","stapler-B","stapler","B",1639004445823,1639004449307,3484,"Y","N","male",45,1,NA,42,43,0.976744186046512,"Y",0,0,1,1,1633.65664335664,1462.89804953426,6022.35079195944,2410.4375,8.15593633797239,"othercentric"
"286","37T1A1H","39JEC7537VYK5QSH6RLHALOKZ4QCVZ","3A9LA2FRWSB143BY1WVYKDMXBQ4XH0","robot",9,"critical_lr","same","mushroom","L",2,"mushroom","mushroom-L","mushroom","L",1639004479115,1639004480425,1310,"Y","N","male",45,1,1,42,43,0.976744186046512,"Y",1,1,0,0,1633.65664335664,1462.89804953426,6022.35079195944,2410.4375,7.1777824161952,"othercentric"
"287","37T1A1H","39JEC7537VYK5QSH6RLHALOKZ4QCVZ","3A9LA2FRWSB143BY1WVYKDMXBQ4XH0","robot",12,"critical_fb","different","potato","B",2,"potato","potato-F","potato","F",1639004492831,1639004498031,5200,"Y","N","male",45,1,NA,42,43,0.976744186046512,"Y",0,0,1,1,1633.65664335664,1462.89804953426,6022.35079195944,2410.4375,8.55641390456952,"othercentric"
"288","37T1A1H","39JEC7537VYK5QSH6RLHALOKZ4QCVZ","3A9LA2FRWSB143BY1WVYKDMXBQ4XH0","robot",15,"critical_fb","different","crab","F",2,"crab","crab-B","crab","B",1639004509754,1639004511136,1382,"Y","N","male",45,1,NA,42,43,0.976744186046512,"Y",0,0,1,1,1633.65664335664,1462.89804953426,6022.35079195944,2410.4375,7.23128700432762,"othercentric"
"289","37T1A1H","39JEC7537VYK5QSH6RLHALOKZ4QCVZ","3A9LA2FRWSB143BY1WVYKDMXBQ4XH0","robot",17,"critical_fb","different","cap","B",2,"cap","cap-F","cap","F",1639004518099,1639004520987,2888,"Y","N","male",45,1,NA,42,43,0.976744186046512,"Y",0,0,1,1,1633.65664335664,1462.89804953426,6022.35079195944,2410.4375,7.96831950001272,"othercentric"
"290","37T1A1H","39JEC7537VYK5QSH6RLHALOKZ4QCVZ","3A9LA2FRWSB143BY1WVYKDMXBQ4XH0","robot",21,"critical_fb","same","clock","F",2,"clock","clock-F","clock","F",1639004540695,1639004541441,746,"Y","N","male",45,1,1,42,43,0.976744186046512,"Y",1,1,0,0,1633.65664335664,1462.89804953426,6022.35079195944,2410.4375,6.61472560020376,"othercentric"
"291","37T1A1H","39JEC7537VYK5QSH6RLHALOKZ4QCVZ","3A9LA2FRWSB143BY1WVYKDMXBQ4XH0","robot",23,"critical_lr","same","coconut","L",2,"coconut","coconut-L","coconut","L",1639004549186,1639004551079,1893,"Y","N","male",45,1,1,42,43,0.976744186046512,"Y",1,1,0,0,1633.65664335664,1462.89804953426,6022.35079195944,2410.4375,7.54591815120932,"othercentric"
"292","37T1A1H","39JEC7537VYK5QSH6RLHALOKZ4QCVZ","3A9LA2FRWSB143BY1WVYKDMXBQ4XH0","robot",31,"critical_fb","same","lemon","B",2,"lemon","lemon-B","lemon","B",1639004587762,1639004588981,1219,"Y","N","male",45,1,1,42,43,0.976744186046512,"Y",1,1,0,0,1633.65664335664,1462.89804953426,6022.35079195944,2410.4375,7.10578612948127,"othercentric"
"293","37T1A1H","39JEC7537VYK5QSH6RLHALOKZ4QCVZ","3A9LA2FRWSB143BY1WVYKDMXBQ4XH0","robot",34,"critical_lr","same","key","R",2,"key","key-R","key","R",1639004601165,1639004602886,1721,"Y","N","male",45,1,1,42,43,0.976744186046512,"Y",1,1,0,0,1633.65664335664,1462.89804953426,6022.35079195944,2410.4375,7.45066079621154,"othercentric"
"294","37T1A1H","39JEC7537VYK5QSH6RLHALOKZ4QCVZ","3A9LA2FRWSB143BY1WVYKDMXBQ4XH0","robot",39,"critical_lr","different","glove","L",2,"glove","glove-R","glove","R",1639004623147,1639004627148,4001,"Y","N","male",45,1,NA,42,43,0.976744186046512,"Y",0,0,1,1,1633.65664335664,1462.89804953426,6022.35079195944,2410.4375,8.29429960885724,"othercentric"
"295","37T1A1H","39JEC7537VYK5QSH6RLHALOKZ4QCVZ","3A9LA2FRWSB143BY1WVYKDMXBQ4XH0","robot",42,"critical_lr","different","plant","L",2,"plant","plant-R","plant","R",1639004638258,1639004641098,2840,"Y","N","male",45,1,NA,42,43,0.976744186046512,"Y",0,0,1,1,1633.65664335664,1462.89804953426,6022.35079195944,2410.4375,7.95155933115525,"othercentric"
"296","37T1A1H","39JEC7537VYK5QSH6RLHALOKZ4QCVZ","3A9LA2FRWSB143BY1WVYKDMXBQ4XH0","robot",44,"critical_lr","different","cheese","R",2,"cheese","cheese-L","cheese","L",1639004648136,1639004649635,1499,"Y","N","male",45,1,NA,42,43,0.976744186046512,"Y",0,0,1,1,1633.65664335664,1462.89804953426,6022.35079195944,2410.4375,7.3125534981026,"othercentric"
"297","37T1A1H","39JEC7537VYK5QSH6RLHALOKZ4QCVZ","3A9LA2FRWSB143BY1WVYKDMXBQ4XH0","robot",46,"critical_fb","same","shoe","B",2,"shoe","shoe-B","shoe","B",1639004656021,1639004657183,1162,"Y","N","male",45,1,1,42,43,0.976744186046512,"Y",1,1,0,0,1633.65664335664,1462.89804953426,6022.35079195944,2410.4375,7.05789793741186,"othercentric"
"298","37T1A1H","39JEC7537VYK5QSH6RLHALOKZ4QCVZ","3A9LA2FRWSB143BY1WVYKDMXBQ4XH0","robot",48,"critical_fb","same","vase","F",2,"vase","vase-F","vase","F",1639004663853,1639004665438,1585,"Y","N","male",45,1,1,42,43,0.976744186046512,"Y",1,1,0,0,1633.65664335664,1462.89804953426,6022.35079195944,2410.4375,7.36833968631138,"othercentric"
"299","37T1A1H","39JEC7537VYK5QSH6RLHALOKZ4QCVZ","3A9LA2FRWSB143BY1WVYKDMXBQ4XH0","robot",50,"critical_lr","same","kettle","R",2,"kettle","kettle-R","kettle","R",1639004671376,1639004672891,1515,"Y","N","male",45,1,1,42,43,0.976744186046512,"Y",1,1,0,0,1633.65664335664,1462.89804953426,6022.35079195944,2410.4375,7.32317071794347,"othercentric"
"300","G60KA1I","3C8HJ7UOP8RENW9IKD4YYN6SHJOZM8","3ZQA3IO31BO36JCSYG5H9DFXIVTO19","robot",3,"critical_fb","same","cap","B",2,"cap","cap-B","cap","B",1638823590147,1638823591768,1621,"Y","N","male",36,1,1,44,44,1,"Y",1,1,0,0,1633.65664335664,1462.89804953426,6022.35079195944,2012,7.39079852173568,"othercentric"
