"","workerID","assignmentID","hitID","partnerCondition","trialIdx","dispType","perspective","targetObj","targetPos","numImages","distObjArr","respObjID","respObj","respObjPos","utteranceOffsetTime","respDropTime","respTime","nativeness","belief","gender","age","counter","accuracy","acc","total","accuracy.prop","include","own.cod","own.num","other.cod","other.num","meanRespTime","sdRespTime","upper","byPptMeanRespTime","logRespTime","responderType","aq_score_subset","aq_score_total","opt_score_total","opt_n","opt_score","congruent","incongruent","stroop_difference","aq_score_subset_centred","aq_score_total_centred","aq_score_subset_centred_scaled","opt_score_centred","opt_score_centred_scaled","stroop_difference_centred","stroop_difference_centred_scaled","perspective_cod"
"1","5RXRA10","3R3YRB5GRG0WZW6JHNFL84WDLKXAUN","3SBNLSTU6U29XI6BGI0TQDNARVSDZH","robot",3,"critical_lr","same","shoe","L",2,"shoe","shoe-L","shoe","L",1638816283188,1638816284290,1102,"Y","N","female",60,1,1,43,44,0.977272727272727,"Y",1,1,0,0,1633.65664335664,1462.89804953426,6022.35079195944,1328.6875,7.00488198971286,"mixed",55,119,540,12,45,718.758620689655,892.578947368421,173.820326678766,9.11454219030521,2.08440366972476,0.0911454219030521,-13.4514770687123,-0.134514770687123,-8.26543519837554,-0.0826543519837554,-0.495870736086176
"2","5RXRA10","3R3YRB5GRG0WZW6JHNFL84WDLKXAUN","3SBNLSTU6U29XI6BGI0TQDNARVSDZH","robot",6,"critical_lr","different","clock","R",2,"clock","clock-R","clock","R",1638816294707,1638816295811,1104,"Y","N","female",60,1,NA,43,44,0.977272727272727,"Y",1,1,0,0,1633.65664335664,1462.89804953426,6022.35079195944,1328.6875,7.00669522683704,"mixed",55,119,540,12,45,718.758620689655,892.578947368421,173.820326678766,9.11454219030521,2.08440366972476,0.0911454219030521,-13.4514770687123,-0.134514770687123,-8.26543519837554,-0.0826543519837554,0.504129263913824
"3","5RXRA10","3R3YRB5GRG0WZW6JHNFL84WDLKXAUN","3SBNLSTU6U29XI6BGI0TQDNARVSDZH","robot",11,"critical_lr","same","lemon","R",2,"lemon","lemon-R","lemon","R",1638816315585,1638816317076,1491,"Y","N","female",60,1,1,43,44,0.977272727272727,"Y",1,1,0,0,1633.65664335664,1462.89804953426,6022.35079195944,1328.6875,7.30720231476474,"mixed",55,119,540,12,45,718.758620689655,892.578947368421,173.820326678766,9.11454219030521,2.08440366972476,0.0911454219030521,-13.4514770687123,-0.134514770687123,-8.26543519837554,-0.0826543519837554,-0.495870736086176
"4","5RXRA10","3R3YRB5GRG0WZW6JHNFL84WDLKXAUN","3SBNLSTU6U29XI6BGI0TQDNARVSDZH","robot",13,"critical_lr","different","vase","L",2,"vase","vase-L","vase","L",1638816323766,1638816324667,901,"Y","N","female",60,1,NA,43,44,0.977272727272727,"Y",1,1,0,0,1633.65664335664,1462.89804953426,6022.35079195944,1328.6875,6.80350525760834,"mixed",55,119,540,12,45,718.758620689655,892.578947368421,173.820326678766,9.11454219030521,2.08440366972476,0.0911454219030521,-13.4514770687123,-0.134514770687123,-8.26543519837554,-0.0826543519837554,0.504129263913824
"5","5RXRA10","3R3YRB5GRG0WZW6JHNFL84WDLKXAUN","3SBNLSTU6U29XI6BGI0TQDNARVSDZH","robot",17,"critical_lr","different","stapler","L",2,"stapler","stapler-L","stapler","L",1638816343746,1638816344748,1002,"Y","N","female",60,1,NA,43,44,0.977272727272727,"Y",1,1,0,0,1633.65664335664,1462.89804953426,6022.35079195944,1328.6875,6.90975328164481,"mixed",55,119,540,12,45,718.758620689655,892.578947368421,173.820326678766,9.11454219030521,2.08440366972476,0.0911454219030521,-13.4514770687123,-0.134514770687123,-8.26543519837554,-0.0826543519837554,0.504129263913824
"6","5RXRA10","3R3YRB5GRG0WZW6JHNFL84WDLKXAUN","3SBNLSTU6U29XI6BGI0TQDNARVSDZH","robot",22,"critical_fb","same","glove","F",2,"glove","glove-F","glove","F",1638816362326,1638816363897,1571,"Y","N","female",60,1,1,43,44,0.977272727272727,"Y",1,1,0,0,1633.65664335664,1462.89804953426,6022.35079195944,1328.6875,7.35946763825562,"mixed",55,119,540,12,45,718.758620689655,892.578947368421,173.820326678766,9.11454219030521,2.08440366972476,0.0911454219030521,-13.4514770687123,-0.134514770687123,-8.26543519837554,-0.0826543519837554,-0.495870736086176
"7","5RXRA10","3R3YRB5GRG0WZW6JHNFL84WDLKXAUN","3SBNLSTU6U29XI6BGI0TQDNARVSDZH","robot",24,"critical_fb","different","frog","B",2,"frog","frog-F","frog","F",1638816370366,1638816371408,1042,"Y","N","female",60,1,NA,43,44,0.977272727272727,"Y",0,0,1,1,1633.65664335664,1462.89804953426,6022.35079195944,1328.6875,6.94889722231331,"mixed",55,119,540,12,45,718.758620689655,892.578947368421,173.820326678766,9.11454219030521,2.08440366972476,0.0911454219030521,-13.4514770687123,-0.134514770687123,-8.26543519837554,-0.0826543519837554,0.504129263913824
"8","5RXRA10","3R3YRB5GRG0WZW6JHNFL84WDLKXAUN","3SBNLSTU6U29XI6BGI0TQDNARVSDZH","robot",26,"critical_fb","same","plant","B",2,"plant","plant-B","plant","B",1638816378585,1638816379582,997,"Y","N","female",60,1,1,43,44,0.977272727272727,"Y",1,1,0,0,1633.65664335664,1462.89804953426,6022.35079195944,1328.6875,6.90475076996184,"mixed",55,119,540,12,45,718.758620689655,892.578947368421,173.820326678766,9.11454219030521,2.08440366972476,0.0911454219030521,-13.4514770687123,-0.134514770687123,-8.26543519837554,-0.0826543519837554,-0.495870736086176
"9","5RXRA10","3R3YRB5GRG0WZW6JHNFL84WDLKXAUN","3SBNLSTU6U29XI6BGI0TQDNARVSDZH","robot",29,"critical_fb","same","kettle","F",2,"kettle","kettle-F","kettle","F",1638816390326,1638816392004,1678,"Y","N","female",60,1,1,43,44,0.977272727272727,"Y",1,1,0,0,1633.65664335664,1462.89804953426,6022.35079195944,1328.6875,7.42535788702715,"mixed",55,119,540,12,45,718.758620689655,892.578947368421,173.820326678766,9.11454219030521,2.08440366972476,0.0911454219030521,-13.4514770687123,-0.134514770687123,-8.26543519837554,-0.0826543519837554,-0.495870736086176
"10","5RXRA10","3R3YRB5GRG0WZW6JHNFL84WDLKXAUN","3SBNLSTU6U29XI6BGI0TQDNARVSDZH","robot",33,"critical_lr","different","potato","R",2,"potato","potato-L","potato","L",1638816406285,1638816408856,2571,"Y","N","female",60,1,NA,43,44,0.977272727272727,"Y",0,0,1,1,1633.65664335664,1462.89804953426,6022.35079195944,1328.6875,7.85205020726589,"mixed",55,119,540,12,45,718.758620689655,892.578947368421,173.820326678766,9.11454219030521,2.08440366972476,0.0911454219030521,-13.4514770687123,-0.134514770687123,-8.26543519837554,-0.0826543519837554,0.504129263913824
"11","5RXRA10","3R3YRB5GRG0WZW6JHNFL84WDLKXAUN","3SBNLSTU6U29XI6BGI0TQDNARVSDZH","robot",37,"critical_lr","same","crab","L",2,"crab","crab-L","crab","L",1638816423476,1638816425939,2463,"Y","N","female",60,1,1,43,44,0.977272727272727,"Y",1,1,0,0,1633.65664335664,1462.89804953426,6022.35079195944,1328.6875,7.80913539812054,"mixed",55,119,540,12,45,718.758620689655,892.578947368421,173.820326678766,9.11454219030521,2.08440366972476,0.0911454219030521,-13.4514770687123,-0.134514770687123,-8.26543519837554,-0.0826543519837554,-0.495870736086176
"12","5RXRA10","3R3YRB5GRG0WZW6JHNFL84WDLKXAUN","3SBNLSTU6U29XI6BGI0TQDNARVSDZH","robot",41,"critical_fb","different","cheese","F",2,"cheese","cheese-B","cheese","B",1638816444406,1638816445172,766,"Y","N","female",60,1,NA,43,44,0.977272727272727,"Y",0,0,1,1,1633.65664335664,1462.89804953426,6022.35079195944,1328.6875,6.64118216974059,"mixed",55,119,540,12,45,718.758620689655,892.578947368421,173.820326678766,9.11454219030521,2.08440366972476,0.0911454219030521,-13.4514770687123,-0.134514770687123,-8.26543519837554,-0.0826543519837554,0.504129263913824
"13","5RXRA10","3R3YRB5GRG0WZW6JHNFL84WDLKXAUN","3SBNLSTU6U29XI6BGI0TQDNARVSDZH","robot",44,"critical_fb","same","coconut","B",2,"coconut","coconut-B","coconut","B",1638816454867,1638816456943,2076,"Y","N","female",60,1,1,43,44,0.977272727272727,"Y",1,1,0,0,1633.65664335664,1462.89804953426,6022.35079195944,1328.6875,7.63819824428578,"mixed",55,119,540,12,45,718.758620689655,892.578947368421,173.820326678766,9.11454219030521,2.08440366972476,0.0911454219030521,-13.4514770687123,-0.134514770687123,-8.26543519837554,-0.0826543519837554,-0.495870736086176
"14","5RXRA10","3R3YRB5GRG0WZW6JHNFL84WDLKXAUN","3SBNLSTU6U29XI6BGI0TQDNARVSDZH","robot",46,"critical_fb","different","key","B",2,"key","key-F","key","F",1638816463426,1638816464437,1011,"Y","N","female",60,1,NA,43,44,0.977272727272727,"Y",0,0,1,1,1633.65664335664,1462.89804953426,6022.35079195944,1328.6875,6.91869521902047,"mixed",55,119,540,12,45,718.758620689655,892.578947368421,173.820326678766,9.11454219030521,2.08440366972476,0.0911454219030521,-13.4514770687123,-0.134514770687123,-8.26543519837554,-0.0826543519837554,0.504129263913824
"15","5RXRA10","3R3YRB5GRG0WZW6JHNFL84WDLKXAUN","3SBNLSTU6U29XI6BGI0TQDNARVSDZH","robot",48,"critical_lr","same","cap","R",2,"cap","cap-R","cap","R",1638816470436,1638816471280,844,"Y","N","female",60,1,1,43,44,0.977272727272727,"Y",1,1,0,0,1633.65664335664,1462.89804953426,6022.35079195944,1328.6875,6.73815249459596,"mixed",55,119,540,12,45,718.758620689655,892.578947368421,173.820326678766,9.11454219030521,2.08440366972476,0.0911454219030521,-13.4514770687123,-0.134514770687123,-8.26543519837554,-0.0826543519837554,-0.495870736086176
"16","5RXRA10","3R3YRB5GRG0WZW6JHNFL84WDLKXAUN","3SBNLSTU6U29XI6BGI0TQDNARVSDZH","robot",50,"critical_fb","different","mushroom","F",2,"mushroom","mushroom-B","mushroom","B",1638816478016,1638816478656,640,"Y","N","female",60,1,NA,43,44,0.977272727272727,"Y",0,0,1,1,1633.65664335664,1462.89804953426,6022.35079195944,1328.6875,6.46146817635372,"mixed",55,119,540,12,45,718.758620689655,892.578947368421,173.820326678766,9.11454219030521,2.08440366972476,0.0911454219030521,-13.4514770687123,-0.134514770687123,-8.26543519837554,-0.0826543519837554,0.504129263913824
"17","WKC0A11","3H8DHMCCWA8GU74J7J2LSIVL5Q8DKW","32L724R85LHWRPKRLN32QC1998IIP6","robot",4,"critical_fb","different","key","F",2,"key","key-B","key","B",1639506149495,1639506150310,815,"Y","N","female",24,1,NA,44,44,1,"Y",0,0,1,1,1633.65664335664,1462.89804953426,6022.35079195944,1229.125,6.70318811324086,"mixed",61,126,540,12,45,793.322033898305,1151.25714285714,357.935108958838,15.1145421903052,9.08440366972476,0.151145421903052,-13.4514770687123,-0.134514770687123,175.849347081696,1.75849347081696,0.504129263913824
"18","WKC0A11","3H8DHMCCWA8GU74J7J2LSIVL5Q8DKW","32L724R85LHWRPKRLN32QC1998IIP6","robot",8,"critical_lr","same","lemon","R",2,"lemon","lemon-R","lemon","R",1639506168525,1639506169627,1102,"Y","N","female",24,1,1,44,44,1,"Y",1,1,0,0,1633.65664335664,1462.89804953426,6022.35079195944,1229.125,7.00488198971286,"mixed",61,126,540,12,45,793.322033898305,1151.25714285714,357.935108958838,15.1145421903052,9.08440366972476,0.151145421903052,-13.4514770687123,-0.134514770687123,175.849347081696,1.75849347081696,-0.495870736086176
"19","WKC0A11","3H8DHMCCWA8GU74J7J2LSIVL5Q8DKW","32L724R85LHWRPKRLN32QC1998IIP6","robot",10,"critical_fb","different","frog","B",2,"frog","frog-F","frog","F",1639506175935,1639506179176,3241,"Y","N","female",24,1,NA,44,44,1,"Y",0,0,1,1,1633.65664335664,1462.89804953426,6022.35079195944,1229.125,8.08363720314155,"mixed",61,126,540,12,45,793.322033898305,1151.25714285714,357.935108958838,15.1145421903052,9.08440366972476,0.151145421903052,-13.4514770687123,-0.134514770687123,175.849347081696,1.75849347081696,0.504129263913824
"20","WKC0A11","3H8DHMCCWA8GU74J7J2LSIVL5Q8DKW","32L724R85LHWRPKRLN32QC1998IIP6","robot",13,"critical_lr","different","clock","R",2,"clock","clock-R","clock","R",1639506189345,1639506190660,1315,"Y","N","female",24,1,NA,44,44,1,"Y",1,1,0,0,1633.65664335664,1462.89804953426,6022.35079195944,1229.125,7.18159194461187,"mixed",61,126,540,12,45,793.322033898305,1151.25714285714,357.935108958838,15.1145421903052,9.08440366972476,0.151145421903052,-13.4514770687123,-0.134514770687123,175.849347081696,1.75849347081696,0.504129263913824
"21","WKC0A11","3H8DHMCCWA8GU74J7J2LSIVL5Q8DKW","32L724R85LHWRPKRLN32QC1998IIP6","robot",17,"critical_lr","different","cap","R",2,"cap","cap-R","cap","R",1639506204804,1639506205526,722,"Y","N","female",24,1,NA,44,44,1,"Y",1,1,0,0,1633.65664335664,1462.89804953426,6022.35079195944,1229.125,6.58202513889283,"mixed",61,126,540,12,45,793.322033898305,1151.25714285714,357.935108958838,15.1145421903052,9.08440366972476,0.151145421903052,-13.4514770687123,-0.134514770687123,175.849347081696,1.75849347081696,0.504129263913824
"22","WKC0A11","3H8DHMCCWA8GU74J7J2LSIVL5Q8DKW","32L724R85LHWRPKRLN32QC1998IIP6","robot",22,"critical_fb","same","glove","B",2,"glove","glove-B","glove","B",1639506223345,1639506224543,1198,"Y","N","female",24,1,1,44,44,1,"Y",1,1,0,0,1633.65664335664,1462.89804953426,6022.35079195944,1229.125,7.08840877867539,"mixed",61,126,540,12,45,793.322033898305,1151.25714285714,357.935108958838,15.1145421903052,9.08440366972476,0.151145421903052,-13.4514770687123,-0.134514770687123,175.849347081696,1.75849347081696,-0.495870736086176
"23","WKC0A11","3H8DHMCCWA8GU74J7J2LSIVL5Q8DKW","32L724R85LHWRPKRLN32QC1998IIP6","robot",26,"critical_lr","different","potato","L",2,"potato","potato-L","potato","L",1639506238335,1639506239077,742,"Y","N","female",24,1,NA,44,44,1,"Y",1,1,0,0,1633.65664335664,1462.89804953426,6022.35079195944,1229.125,6.60934924316738,"mixed",61,126,540,12,45,793.322033898305,1151.25714285714,357.935108958838,15.1145421903052,9.08440366972476,0.151145421903052,-13.4514770687123,-0.134514770687123,175.849347081696,1.75849347081696,0.504129263913824
"24","WKC0A11","3H8DHMCCWA8GU74J7J2LSIVL5Q8DKW","32L724R85LHWRPKRLN32QC1998IIP6","robot",28,"critical_fb","different","cheese","B",2,"cheese","cheese-F","cheese","F",1639506246555,1639506247210,655,"Y","N","female",24,1,NA,44,44,1,"Y",0,0,1,1,1633.65664335664,1462.89804953426,6022.35079195944,1229.125,6.48463523563525,"mixed",61,126,540,12,45,793.322033898305,1151.25714285714,357.935108958838,15.1145421903052,9.08440366972476,0.151145421903052,-13.4514770687123,-0.134514770687123,175.849347081696,1.75849347081696,0.504129263913824
"25","WKC0A11","3H8DHMCCWA8GU74J7J2LSIVL5Q8DKW","32L724R85LHWRPKRLN32QC1998IIP6","robot",30,"critical_fb","same","kettle","B",2,"kettle","kettle-B","kettle","B",1639506254054,1639506256210,2156,"Y","N","female",24,1,1,44,44,1,"Y",1,1,0,0,1633.65664335664,1462.89804953426,6022.35079195944,1229.125,7.67600993202889,"mixed",61,126,540,12,45,793.322033898305,1151.25714285714,357.935108958838,15.1145421903052,9.08440366972476,0.151145421903052,-13.4514770687123,-0.134514770687123,175.849347081696,1.75849347081696,-0.495870736086176
"26","WKC0A11","3H8DHMCCWA8GU74J7J2LSIVL5Q8DKW","32L724R85LHWRPKRLN32QC1998IIP6","robot",32,"critical_lr","same","vase","R",2,"vase","vase-R","vase","R",1639506263275,1639506265460,2185,"Y","N","female",24,1,1,44,44,1,"Y",1,1,0,0,1633.65664335664,1462.89804953426,6022.35079195944,1229.125,7.68937110752969,"mixed",61,126,540,12,45,793.322033898305,1151.25714285714,357.935108958838,15.1145421903052,9.08440366972476,0.151145421903052,-13.4514770687123,-0.134514770687123,175.849347081696,1.75849347081696,-0.495870736086176
"27","WKC0A11","3H8DHMCCWA8GU74J7J2LSIVL5Q8DKW","32L724R85LHWRPKRLN32QC1998IIP6","robot",34,"critical_fb","same","mushroom","F",2,"mushroom","mushroom-F","mushroom","F",1639506272855,1639506273710,855,"Y","N","female",24,1,1,44,44,1,"Y",1,1,0,0,1633.65664335664,1462.89804953426,6022.35079195944,1229.125,6.75110146893676,"mixed",61,126,540,12,45,793.322033898305,1151.25714285714,357.935108958838,15.1145421903052,9.08440366972476,0.151145421903052,-13.4514770687123,-0.134514770687123,175.849347081696,1.75849347081696,-0.495870736086176
"28","WKC0A11","3H8DHMCCWA8GU74J7J2LSIVL5Q8DKW","32L724R85LHWRPKRLN32QC1998IIP6","robot",38,"critical_lr","same","crab","L",2,"crab","crab-L","crab","L",1639506287955,1639506288560,605,"Y","N","female",24,1,1,44,44,1,"Y",1,1,0,0,1633.65664335664,1462.89804953426,6022.35079195944,1229.125,6.40522845803084,"mixed",61,126,540,12,45,793.322033898305,1151.25714285714,357.935108958838,15.1145421903052,9.08440366972476,0.151145421903052,-13.4514770687123,-0.134514770687123,175.849347081696,1.75849347081696,-0.495870736086176
"29","WKC0A11","3H8DHMCCWA8GU74J7J2LSIVL5Q8DKW","32L724R85LHWRPKRLN32QC1998IIP6","robot",40,"critical_fb","same","plant","F",2,"plant","plant-F","plant","F",1639506296695,1639506297377,682,"Y","N","female",24,1,1,44,44,1,"Y",1,1,0,0,1633.65664335664,1462.89804953426,6022.35079195944,1229.125,6.52502965784346,"mixed",61,126,540,12,45,793.322033898305,1151.25714285714,357.935108958838,15.1145421903052,9.08440366972476,0.151145421903052,-13.4514770687123,-0.134514770687123,175.849347081696,1.75849347081696,-0.495870736086176
"30","WKC0A11","3H8DHMCCWA8GU74J7J2LSIVL5Q8DKW","32L724R85LHWRPKRLN32QC1998IIP6","robot",44,"critical_fb","different","coconut","F",2,"coconut","coconut-F","coconut","F",1639506312155,1639506313860,1705,"Y","N","female",24,1,NA,44,44,1,"Y",1,1,0,0,1633.65664335664,1462.89804953426,6022.35079195944,1229.125,7.44132038971762,"mixed",61,126,540,12,45,793.322033898305,1151.25714285714,357.935108958838,15.1145421903052,9.08440366972476,0.151145421903052,-13.4514770687123,-0.134514770687123,175.849347081696,1.75849347081696,0.504129263913824
"31","WKC0A11","3H8DHMCCWA8GU74J7J2LSIVL5Q8DKW","32L724R85LHWRPKRLN32QC1998IIP6","robot",47,"critical_lr","different","shoe","L",2,"shoe","shoe-L","shoe","L",1639506325154,1639506326060,906,"Y","N","female",24,1,NA,44,44,1,"Y",1,1,0,0,1633.65664335664,1462.89804953426,6022.35079195944,1229.125,6.80903930604298,"mixed",61,126,540,12,45,793.322033898305,1151.25714285714,357.935108958838,15.1145421903052,9.08440366972476,0.151145421903052,-13.4514770687123,-0.134514770687123,175.849347081696,1.75849347081696,0.504129263913824
"32","WKC0A11","3H8DHMCCWA8GU74J7J2LSIVL5Q8DKW","32L724R85LHWRPKRLN32QC1998IIP6","robot",50,"critical_lr","same","stapler","L",2,"stapler","stapler-L","stapler","L",1639506335895,1639506336677,782,"Y","N","female",24,1,1,44,44,1,"Y",1,1,0,0,1633.65664335664,1462.89804953426,6022.35079195944,1229.125,6.66185474054531,"mixed",61,126,540,12,45,793.322033898305,1151.25714285714,357.935108958838,15.1145421903052,9.08440366972476,0.151145421903052,-13.4514770687123,-0.134514770687123,175.849347081696,1.75849347081696,-0.495870736086176
"33","3Q7CA11","31HQ4X3T3T7XG25JP99B2HU0U9ELSN","3RBI0I35XE0BA0U9R7SYZXSWURI3Y7","robot",4,"critical_fb","same","mushroom","B",2,"mushroom","mushroom-B","mushroom","B",1639004261871,1639004264178,2307,"Y","Y","male",30,1,1,43,43,1,"Y",1,1,0,0,1633.65664335664,1462.89804953426,6022.35079195944,1563.75,7.74370325817375,"egocentric",42,116,1425,12,118.75,932.254237288136,1106.89743589744,174.6431986093,-3.88545780969479,-0.915596330275235,-0.0388545780969479,60.2985229312877,0.602985229312877,-7.44256326784131,-0.0744256326784131,-0.495870736086176
"34","3Q7CA11","31HQ4X3T3T7XG25JP99B2HU0U9ELSN","3RBI0I35XE0BA0U9R7SYZXSWURI3Y7","robot",9,"critical_fb","different","cheese","F",2,"cheese","cheese-F","cheese","F",1639004281735,1639004283761,2026,"Y","Y","male",30,1,NA,43,43,1,"Y",1,1,0,0,1633.65664335664,1462.89804953426,6022.35079195944,1563.75,7.61381868480863,"egocentric",42,116,1425,12,118.75,932.254237288136,1106.89743589744,174.6431986093,-3.88545780969479,-0.915596330275235,-0.0388545780969479,60.2985229312877,0.602985229312877,-7.44256326784131,-0.0744256326784131,0.504129263913824
"35","3Q7CA11","31HQ4X3T3T7XG25JP99B2HU0U9ELSN","3RBI0I35XE0BA0U9R7SYZXSWURI3Y7","robot",11,"critical_lr","same","shoe","L",2,"shoe","shoe-L","shoe","L",1639004291563,1639004292302,739,"Y","Y","male",30,1,1,43,43,1,"Y",1,1,0,0,1633.65664335664,1462.89804953426,6022.35079195944,1563.75,6.6052979209482,"egocentric",42,116,1425,12,118.75,932.254237288136,1106.89743589744,174.6431986093,-3.88545780969479,-0.915596330275235,-0.0388545780969479,60.2985229312877,0.602985229312877,-7.44256326784131,-0.0744256326784131,-0.495870736086176
"36","3Q7CA11","31HQ4X3T3T7XG25JP99B2HU0U9ELSN","3RBI0I35XE0BA0U9R7SYZXSWURI3Y7","robot",13,"critical_lr","different","lemon","L",2,"lemon","lemon-L","lemon","L",1639004298355,1639004298872,517,"Y","Y","male",30,1,NA,43,43,1,"Y",1,1,0,0,1633.65664335664,1462.89804953426,6022.35079195944,1563.75,6.24804287450843,"egocentric",42,116,1425,12,118.75,932.254237288136,1106.89743589744,174.6431986093,-3.88545780969479,-0.915596330275235,-0.0388545780969479,60.2985229312877,0.602985229312877,-7.44256326784131,-0.0744256326784131,0.504129263913824
"37","3Q7CA11","31HQ4X3T3T7XG25JP99B2HU0U9ELSN","3RBI0I35XE0BA0U9R7SYZXSWURI3Y7","robot",17,"critical_lr","different","vase","R",2,"vase","vase-R","vase","R",1639004312658,1639004313934,1276,"Y","Y","male",30,1,NA,43,43,1,"Y",1,1,0,0,1633.65664335664,1462.89804953426,6022.35079195944,1563.75,7.15148546390474,"egocentric",42,116,1425,12,118.75,932.254237288136,1106.89743589744,174.6431986093,-3.88545780969479,-0.915596330275235,-0.0388545780969479,60.2985229312877,0.602985229312877,-7.44256326784131,-0.0744256326784131,0.504129263913824
"38","3Q7CA11","31HQ4X3T3T7XG25JP99B2HU0U9ELSN","3RBI0I35XE0BA0U9R7SYZXSWURI3Y7","robot",19,"critical_fb","different","plant","B",2,"plant","plant-B","plant","B",1639004321926,1639004324845,2919,"Y","Y","male",30,1,NA,43,43,1,"Y",1,1,0,0,1633.65664335664,1462.89804953426,6022.35079195944,1563.75,7.97899637085411,"egocentric",42,116,1425,12,118.75,932.254237288136,1106.89743589744,174.6431986093,-3.88545780969479,-0.915596330275235,-0.0388545780969479,60.2985229312877,0.602985229312877,-7.44256326784131,-0.0744256326784131,0.504129263913824
"39","3Q7CA11","31HQ4X3T3T7XG25JP99B2HU0U9ELSN","3RBI0I35XE0BA0U9R7SYZXSWURI3Y7","robot",22,"critical_fb","same","glove","B",2,"glove","glove-B","glove","B",1639004335139,1639004340490,5351,"Y","Y","male",30,1,1,43,43,1,"Y",1,1,0,0,1633.65664335664,1462.89804953426,6022.35079195944,1563.75,8.5850387383113,"egocentric",42,116,1425,12,118.75,932.254237288136,1106.89743589744,174.6431986093,-3.88545780969479,-0.915596330275235,-0.0388545780969479,60.2985229312877,0.602985229312877,-7.44256326784131,-0.0744256326784131,-0.495870736086176
"40","3Q7CA11","31HQ4X3T3T7XG25JP99B2HU0U9ELSN","3RBI0I35XE0BA0U9R7SYZXSWURI3Y7","robot",28,"critical_fb","same","key","F",2,"key","key-F","key","F",1639004363087,1639004363838,751,"Y","Y","male",30,1,1,43,43,1,"Y",1,1,0,0,1633.65664335664,1462.89804953426,6022.35079195944,1563.75,6.62140565176413,"egocentric",42,116,1425,12,118.75,932.254237288136,1106.89743589744,174.6431986093,-3.88545780969479,-0.915596330275235,-0.0388545780969479,60.2985229312877,0.602985229312877,-7.44256326784131,-0.0744256326784131,-0.495870736086176
"41","3Q7CA11","31HQ4X3T3T7XG25JP99B2HU0U9ELSN","3RBI0I35XE0BA0U9R7SYZXSWURI3Y7","robot",32,"critical_fb","different","frog","F",2,"frog","frog-F","frog","F",1639004378893,1639004381420,2527,"Y","Y","male",30,1,NA,43,43,1,"Y",1,1,0,0,1633.65664335664,1462.89804953426,6022.35079195944,1563.75,7.83478810738819,"egocentric",42,116,1425,12,118.75,932.254237288136,1106.89743589744,174.6431986093,-3.88545780969479,-0.915596330275235,-0.0388545780969479,60.2985229312877,0.602985229312877,-7.44256326784131,-0.0744256326784131,0.504129263913824
"42","3Q7CA11","31HQ4X3T3T7XG25JP99B2HU0U9ELSN","3RBI0I35XE0BA0U9R7SYZXSWURI3Y7","robot",34,"critical_lr","same","potato","R",2,"potato","potato-R","potato","R",1639004388557,1639004389732,1175,"Y","Y","male",30,1,1,43,43,1,"Y",1,1,0,0,1633.65664335664,1462.89804953426,6022.35079195944,1563.75,7.06902342657826,"egocentric",42,116,1425,12,118.75,932.254237288136,1106.89743589744,174.6431986093,-3.88545780969479,-0.915596330275235,-0.0388545780969479,60.2985229312877,0.602985229312877,-7.44256326784131,-0.0744256326784131,-0.495870736086176
"43","3Q7CA11","31HQ4X3T3T7XG25JP99B2HU0U9ELSN","3RBI0I35XE0BA0U9R7SYZXSWURI3Y7","robot",38,"critical_lr","same","crab","L",2,"crab","crab-L","crab","L",1639004404018,1639004404526,508,"Y","Y","male",30,1,1,43,43,1,"Y",1,1,0,0,1633.65664335664,1462.89804953426,6022.35079195944,1563.75,6.23048144757848,"egocentric",42,116,1425,12,118.75,932.254237288136,1106.89743589744,174.6431986093,-3.88545780969479,-0.915596330275235,-0.0388545780969479,60.2985229312877,0.602985229312877,-7.44256326784131,-0.0744256326784131,-0.495870736086176
"44","3Q7CA11","31HQ4X3T3T7XG25JP99B2HU0U9ELSN","3RBI0I35XE0BA0U9R7SYZXSWURI3Y7","robot",40,"critical_lr","different","stapler","R",2,"stapler","stapler-R","stapler","R",1639004411351,1639004412709,1358,"Y","Y","male",30,1,NA,43,43,1,"Y",1,1,0,0,1633.65664335664,1462.89804953426,6022.35079195944,1563.75,7.21376830811864,"egocentric",42,116,1425,12,118.75,932.254237288136,1106.89743589744,174.6431986093,-3.88545780969479,-0.915596330275235,-0.0388545780969479,60.2985229312877,0.602985229312877,-7.44256326784131,-0.0744256326784131,0.504129263913824
"45","3Q7CA11","31HQ4X3T3T7XG25JP99B2HU0U9ELSN","3RBI0I35XE0BA0U9R7SYZXSWURI3Y7","robot",42,"critical_lr","different","cap","L",2,"cap","cap-L","cap","L",1639004419307,1639004419889,582,"Y","Y","male",30,1,NA,43,43,1,"Y",1,1,0,0,1633.65664335664,1462.89804953426,6022.35079195944,1563.75,6.36647044773144,"egocentric",42,116,1425,12,118.75,932.254237288136,1106.89743589744,174.6431986093,-3.88545780969479,-0.915596330275235,-0.0388545780969479,60.2985229312877,0.602985229312877,-7.44256326784131,-0.0744256326784131,0.504129263913824
"46","3Q7CA11","31HQ4X3T3T7XG25JP99B2HU0U9ELSN","3RBI0I35XE0BA0U9R7SYZXSWURI3Y7","robot",45,"critical_fb","different","kettle","B",2,"kettle","kettle-F","kettle","F",1639004429352,1639004430020,668,"Y","Y","male",30,1,NA,43,43,1,"Y",0,0,1,1,1633.65664335664,1462.89804953426,6022.35079195944,1563.75,6.50428817353665,"egocentric",42,116,1425,12,118.75,932.254237288136,1106.89743589744,174.6431986093,-3.88545780969479,-0.915596330275235,-0.0388545780969479,60.2985229312877,0.602985229312877,-7.44256326784131,-0.0744256326784131,0.504129263913824
"47","3Q7CA11","31HQ4X3T3T7XG25JP99B2HU0U9ELSN","3RBI0I35XE0BA0U9R7SYZXSWURI3Y7","robot",47,"critical_fb","same","coconut","F",2,"coconut","coconut-F","coconut","F",1639004438196,1639004439952,1756,"Y","Y","male",30,1,1,43,43,1,"Y",1,1,0,0,1633.65664335664,1462.89804953426,6022.35079195944,1563.75,7.47079377419506,"egocentric",42,116,1425,12,118.75,932.254237288136,1106.89743589744,174.6431986093,-3.88545780969479,-0.915596330275235,-0.0388545780969479,60.2985229312877,0.602985229312877,-7.44256326784131,-0.0744256326784131,-0.495870736086176
"48","3Q7CA11","31HQ4X3T3T7XG25JP99B2HU0U9ELSN","3RBI0I35XE0BA0U9R7SYZXSWURI3Y7","robot",50,"critical_lr","same","clock","R",2,"clock","clock-R","clock","R",1639004450283,1639004450843,560,"Y","Y","male",30,1,1,43,43,1,"Y",1,1,0,0,1633.65664335664,1462.89804953426,6022.35079195944,1563.75,6.32793678372919,"egocentric",42,116,1425,12,118.75,932.254237288136,1106.89743589744,174.6431986093,-3.88545780969479,-0.915596330275235,-0.0388545780969479,60.2985229312877,0.602985229312877,-7.44256326784131,-0.0744256326784131,-0.495870736086176
"49","D6DCA12","3MHW492WW1AXEC48JGFVDHTWTDVVMR","3J9UN9O9J3PPYJ0DMK9CNCF1EAM0JA","robot",4,"critical_fb","different","glove","F",2,"glove","glove-B","glove","B",1638919629890,1638919631513,1623,"Y","N","male",29,1,NA,44,44,1,"Y",0,0,1,1,1633.65664335664,1462.89804953426,6022.35079195944,915.5,7.39203156751459,"mixed",57,136,1185,12,98.75,654.322033898305,705.648648648649,51.3266147503435,11.1145421903052,19.0844036697248,0.111145421903052,40.2985229312877,0.402985229312877,-130.759147126798,-1.30759147126798,0.504129263913824
"50","D6DCA12","3MHW492WW1AXEC48JGFVDHTWTDVVMR","3J9UN9O9J3PPYJ0DMK9CNCF1EAM0JA","robot",7,"critical_fb","different","coconut","B",2,"coconut","coconut-F","coconut","F",1638919641869,1638919642695,826,"Y","N","male",29,1,NA,44,44,1,"Y",0,0,1,1,1633.65664335664,1462.89804953426,6022.35079195944,915.5,6.71659477352098,"mixed",57,136,1185,12,98.75,654.322033898305,705.648648648649,51.3266147503435,11.1145421903052,19.0844036697248,0.111145421903052,40.2985229312877,0.402985229312877,-130.759147126798,-1.30759147126798,0.504129263913824
"51","D6DCA12","3MHW492WW1AXEC48JGFVDHTWTDVVMR","3J9UN9O9J3PPYJ0DMK9CNCF1EAM0JA","robot",10,"critical_fb","same","key","B",2,"key","key-B","key","B",1638919652219,1638919652879,660,"Y","N","male",29,1,1,44,44,1,"Y",1,1,0,0,1633.65664335664,1462.89804953426,6022.35079195944,915.5,6.49223983502047,"mixed",57,136,1185,12,98.75,654.322033898305,705.648648648649,51.3266147503435,11.1145421903052,19.0844036697248,0.111145421903052,40.2985229312877,0.402985229312877,-130.759147126798,-1.30759147126798,-0.495870736086176
"52","D6DCA12","3MHW492WW1AXEC48JGFVDHTWTDVVMR","3J9UN9O9J3PPYJ0DMK9CNCF1EAM0JA","robot",15,"critical_lr","same","lemon","R",2,"lemon","lemon-R","lemon","R",1638919671420,1638919673045,1625,"Y","N","male",29,1,1,44,44,1,"Y",1,1,0,0,1633.65664335664,1462.89804953426,6022.35079195944,915.5,7.39326309476384,"mixed",57,136,1185,12,98.75,654.322033898305,705.648648648649,51.3266147503435,11.1145421903052,19.0844036697248,0.111145421903052,40.2985229312877,0.402985229312877,-130.759147126798,-1.30759147126798,-0.495870736086176
"53","D6DCA12","3MHW492WW1AXEC48JGFVDHTWTDVVMR","3J9UN9O9J3PPYJ0DMK9CNCF1EAM0JA","robot",17,"critical_fb","same","kettle","F",2,"kettle","kettle-F","kettle","F",1638919679510,1638919680229,719,"Y","N","male",29,1,1,44,44,1,"Y",1,1,0,0,1633.65664335664,1462.89804953426,6022.35079195944,915.5,6.57786135772105,"mixed",57,136,1185,12,98.75,654.322033898305,705.648648648649,51.3266147503435,11.1145421903052,19.0844036697248,0.111145421903052,40.2985229312877,0.402985229312877,-130.759147126798,-1.30759147126798,-0.495870736086176
"54","D6DCA12","3MHW492WW1AXEC48JGFVDHTWTDVVMR","3J9UN9O9J3PPYJ0DMK9CNCF1EAM0JA","robot",20,"critical_lr","different","crab","R",2,"crab","crab-R","crab","R",1638919691880,1638919692479,599,"Y","N","male",29,1,NA,44,44,1,"Y",1,1,0,0,1633.65664335664,1462.89804953426,6022.35079195944,915.5,6.39526159811545,"mixed",57,136,1185,12,98.75,654.322033898305,705.648648648649,51.3266147503435,11.1145421903052,19.0844036697248,0.111145421903052,40.2985229312877,0.402985229312877,-130.759147126798,-1.30759147126798,0.504129263913824
"55","D6DCA12","3MHW492WW1AXEC48JGFVDHTWTDVVMR","3J9UN9O9J3PPYJ0DMK9CNCF1EAM0JA","robot",22,"critical_lr","same","vase","L",2,"vase","vase-L","vase","L",1638919698340,1638919698779,439,"Y","N","male",29,1,1,44,44,1,"Y",1,1,0,0,1633.65664335664,1462.89804953426,6022.35079195944,915.5,6.08449941307517,"mixed",57,136,1185,12,98.75,654.322033898305,705.648648648649,51.3266147503435,11.1145421903052,19.0844036697248,0.111145421903052,40.2985229312877,0.402985229312877,-130.759147126798,-1.30759147126798,-0.495870736086176
"56","D6DCA12","3MHW492WW1AXEC48JGFVDHTWTDVVMR","3J9UN9O9J3PPYJ0DMK9CNCF1EAM0JA","robot",24,"critical_lr","different","potato","L",2,"potato","potato-L","potato","L",1638919705200,1638919705680,480,"Y","N","male",29,1,NA,44,44,1,"Y",1,1,0,0,1633.65664335664,1462.89804953426,6022.35079195944,915.5,6.17378610390194,"mixed",57,136,1185,12,98.75,654.322033898305,705.648648648649,51.3266147503435,11.1145421903052,19.0844036697248,0.111145421903052,40.2985229312877,0.402985229312877,-130.759147126798,-1.30759147126798,0.504129263913824
"57","D6DCA12","3MHW492WW1AXEC48JGFVDHTWTDVVMR","3J9UN9O9J3PPYJ0DMK9CNCF1EAM0JA","robot",29,"critical_lr","same","clock","L",2,"clock","clock-L","clock","L",1638919723770,1638919724129,359,"Y","N","male",29,1,1,44,44,1,"Y",1,1,0,0,1633.65664335664,1462.89804953426,6022.35079195944,915.5,5.88332238848828,"mixed",57,136,1185,12,98.75,654.322033898305,705.648648648649,51.3266147503435,11.1145421903052,19.0844036697248,0.111145421903052,40.2985229312877,0.402985229312877,-130.759147126798,-1.30759147126798,-0.495870736086176
"58","D6DCA12","3MHW492WW1AXEC48JGFVDHTWTDVVMR","3J9UN9O9J3PPYJ0DMK9CNCF1EAM0JA","robot",32,"critical_lr","same","cap","R",2,"cap","cap-R","cap","R",1638919735370,1638919736029,659,"Y","N","male",29,1,1,44,44,1,"Y",1,1,0,0,1633.65664335664,1462.89804953426,6022.35079195944,915.5,6.49072353450251,"mixed",57,136,1185,12,98.75,654.322033898305,705.648648648649,51.3266147503435,11.1145421903052,19.0844036697248,0.111145421903052,40.2985229312877,0.402985229312877,-130.759147126798,-1.30759147126798,-0.495870736086176
"59","D6DCA12","3MHW492WW1AXEC48JGFVDHTWTDVVMR","3J9UN9O9J3PPYJ0DMK9CNCF1EAM0JA","robot",34,"critical_fb","same","frog","F",2,"frog","frog-F","frog","F",1638919742299,1638919742947,648,"Y","N","male",29,1,1,44,44,1,"Y",1,1,0,0,1633.65664335664,1462.89804953426,6022.35079195944,915.5,6.47389069635227,"mixed",57,136,1185,12,98.75,654.322033898305,705.648648648649,51.3266147503435,11.1145421903052,19.0844036697248,0.111145421903052,40.2985229312877,0.402985229312877,-130.759147126798,-1.30759147126798,-0.495870736086176
"60","D6DCA12","3MHW492WW1AXEC48JGFVDHTWTDVVMR","3J9UN9O9J3PPYJ0DMK9CNCF1EAM0JA","robot",38,"critical_fb","same","plant","B",2,"plant","plant-B","plant","B",1638919757219,1638919757796,577,"Y","N","male",29,1,1,44,44,1,"Y",1,1,0,0,1633.65664335664,1462.89804953426,6022.35079195944,915.5,6.3578422665081,"mixed",57,136,1185,12,98.75,654.322033898305,705.648648648649,51.3266147503435,11.1145421903052,19.0844036697248,0.111145421903052,40.2985229312877,0.402985229312877,-130.759147126798,-1.30759147126798,-0.495870736086176
"61","D6DCA12","3MHW492WW1AXEC48JGFVDHTWTDVVMR","3J9UN9O9J3PPYJ0DMK9CNCF1EAM0JA","robot",42,"critical_lr","different","stapler","R",2,"stapler","stapler-R","stapler","R",1638919772110,1638919773280,1170,"Y","N","male",29,1,NA,44,44,1,"Y",1,1,0,0,1633.65664335664,1462.89804953426,6022.35079195944,915.5,7.0647590277918,"mixed",57,136,1185,12,98.75,654.322033898305,705.648648648649,51.3266147503435,11.1145421903052,19.0844036697248,0.111145421903052,40.2985229312877,0.402985229312877,-130.759147126798,-1.30759147126798,0.504129263913824
"62","D6DCA12","3MHW492WW1AXEC48JGFVDHTWTDVVMR","3J9UN9O9J3PPYJ0DMK9CNCF1EAM0JA","robot",45,"critical_fb","different","mushroom","B",2,"mushroom","mushroom-F","mushroom","F",1638919784919,1638919786046,1127,"Y","N","male",29,1,NA,44,44,1,"Y",0,0,1,1,1633.65664335664,1462.89804953426,6022.35079195944,915.5,7.02731451403978,"mixed",57,136,1185,12,98.75,654.322033898305,705.648648648649,51.3266147503435,11.1145421903052,19.0844036697248,0.111145421903052,40.2985229312877,0.402985229312877,-130.759147126798,-1.30759147126798,0.504129263913824
"63","D6DCA12","3MHW492WW1AXEC48JGFVDHTWTDVVMR","3J9UN9O9J3PPYJ0DMK9CNCF1EAM0JA","robot",48,"critical_lr","different","shoe","L",2,"shoe","shoe-L","shoe","L",1638919796430,1638919798597,2167,"Y","N","male",29,1,NA,44,44,1,"Y",1,1,0,0,1633.65664335664,1462.89804953426,6022.35079195944,915.5,7.68109900153636,"mixed",57,136,1185,12,98.75,654.322033898305,705.648648648649,51.3266147503435,11.1145421903052,19.0844036697248,0.111145421903052,40.2985229312877,0.402985229312877,-130.759147126798,-1.30759147126798,0.504129263913824
"64","D6DCA12","3MHW492WW1AXEC48JGFVDHTWTDVVMR","3J9UN9O9J3PPYJ0DMK9CNCF1EAM0JA","robot",50,"critical_fb","different","cheese","F",2,"cheese","cheese-B","cheese","B",1638919805309,1638919806279,970,"Y","N","male",29,1,NA,44,44,1,"Y",0,0,1,1,1633.65664335664,1462.89804953426,6022.35079195944,915.5,6.87729607149743,"mixed",57,136,1185,12,98.75,654.322033898305,705.648648648649,51.3266147503435,11.1145421903052,19.0844036697248,0.111145421903052,40.2985229312877,0.402985229312877,-130.759147126798,-1.30759147126798,0.504129263913824
"65","CAQQA12","3A1PQ49WVIEV0MNZL5FTEOEKNNN1HX","3R0WOCG21M6SBJC1AV1L9L8VPFRUDR","robot",4,"critical_lr","different","cap","R",2,"cap","cap-R","cap","R",1638911589582,1638911590556,974,"Y","N","male",28,1,NA,42,44,0.954545454545455,"Y",1,1,0,0,1633.65664335664,1462.89804953426,6022.35079195944,2369.625,6.88141130364254,"mixed",47,NA,1065,11,96.8181818181818,823.169491525424,1120.69444444444,297.524952919021,1.11454219030521,NA,0.0111454219030521,38.3667047494696,0.383667047494696,115.439191041879,1.15439191041879,0.504129263913824
"66","CAQQA12","3A1PQ49WVIEV0MNZL5FTEOEKNNN1HX","3R0WOCG21M6SBJC1AV1L9L8VPFRUDR","robot",6,"critical_fb","same","key","F",2,"key","key-B","key","B",1638911596672,1638911599643,2971,"Y","N","male",28,1,0,42,44,0.954545454545455,"Y",0,0,1,1,1633.65664335664,1462.89804953426,6022.35079195944,2369.625,7.99665387546261,"mixed",47,NA,1065,11,96.8181818181818,823.169491525424,1120.69444444444,297.524952919021,1.11454219030521,NA,0.0111454219030521,38.3667047494696,0.383667047494696,115.439191041879,1.15439191041879,-0.495870736086176
"67","CAQQA12","3A1PQ49WVIEV0MNZL5FTEOEKNNN1HX","3R0WOCG21M6SBJC1AV1L9L8VPFRUDR","robot",8,"critical_fb","same","kettle","F",2,"kettle","kettle-B","kettle","B",1638911607792,1638911610647,2855,"Y","N","male",28,1,0,42,44,0.954545454545455,"Y",0,0,1,1,1633.65664335664,1462.89804953426,6022.35079195944,2369.625,7.95682712209011,"mixed",47,NA,1065,11,96.8181818181818,823.169491525424,1120.69444444444,297.524952919021,1.11454219030521,NA,0.0111454219030521,38.3667047494696,0.383667047494696,115.439191041879,1.15439191041879,-0.495870736086176
"68","CAQQA12","3A1PQ49WVIEV0MNZL5FTEOEKNNN1HX","3R0WOCG21M6SBJC1AV1L9L8VPFRUDR","robot",16,"critical_lr","different","clock","L",2,"clock","clock-L","clock","L",1638911649182,1638911650212,1030,"Y","N","male",28,1,NA,42,44,0.954545454545455,"Y",1,1,0,0,1633.65664335664,1462.89804953426,6022.35079195944,2369.625,6.93731408122368,"mixed",47,NA,1065,11,96.8181818181818,823.169491525424,1120.69444444444,297.524952919021,1.11454219030521,NA,0.0111454219030521,38.3667047494696,0.383667047494696,115.439191041879,1.15439191041879,0.504129263913824
"69","CAQQA12","3A1PQ49WVIEV0MNZL5FTEOEKNNN1HX","3R0WOCG21M6SBJC1AV1L9L8VPFRUDR","robot",19,"critical_fb","different","plant","B",2,"plant","plant-F","plant","F",1638911662512,1638911668485,5973,"Y","N","male",28,1,NA,42,44,0.954545454545455,"Y",0,0,1,1,1633.65664335664,1462.89804953426,6022.35079195944,2369.625,8.69500459273231,"mixed",47,NA,1065,11,96.8181818181818,823.169491525424,1120.69444444444,297.524952919021,1.11454219030521,NA,0.0111454219030521,38.3667047494696,0.383667047494696,115.439191041879,1.15439191041879,0.504129263913824
"70","CAQQA12","3A1PQ49WVIEV0MNZL5FTEOEKNNN1HX","3R0WOCG21M6SBJC1AV1L9L8VPFRUDR","robot",23,"critical_lr","same","lemon","L",2,"lemon","lemon-L","lemon","L",1638911690502,1638911693462,2960,"Y","N","male",28,1,1,42,44,0.954545454545455,"Y",1,1,0,0,1633.65664335664,1462.89804953426,6022.35079195944,2369.625,7.99294454731811,"mixed",47,NA,1065,11,96.8181818181818,823.169491525424,1120.69444444444,297.524952919021,1.11454219030521,NA,0.0111454219030521,38.3667047494696,0.383667047494696,115.439191041879,1.15439191041879,-0.495870736086176
"71","CAQQA12","3A1PQ49WVIEV0MNZL5FTEOEKNNN1HX","3R0WOCG21M6SBJC1AV1L9L8VPFRUDR","robot",26,"critical_lr","different","potato","L",2,"potato","potato-L","potato","L",1638911703992,1638911706384,2392,"Y","N","male",28,1,NA,42,44,0.954545454545455,"Y",1,1,0,0,1633.65664335664,1462.89804953426,6022.35079195944,2369.625,7.77988511507052,"mixed",47,NA,1065,11,96.8181818181818,823.169491525424,1120.69444444444,297.524952919021,1.11454219030521,NA,0.0111454219030521,38.3667047494696,0.383667047494696,115.439191041879,1.15439191041879,0.504129263913824
"72","CAQQA12","3A1PQ49WVIEV0MNZL5FTEOEKNNN1HX","3R0WOCG21M6SBJC1AV1L9L8VPFRUDR","robot",29,"critical_fb","different","mushroom","B",2,"mushroom","mushroom-F","mushroom","F",1638911719782,1638911721356,1574,"Y","N","male",28,1,NA,42,44,0.954545454545455,"Y",0,0,1,1,1633.65664335664,1462.89804953426,6022.35079195944,2369.625,7.36137542897735,"mixed",47,NA,1065,11,96.8181818181818,823.169491525424,1120.69444444444,297.524952919021,1.11454219030521,NA,0.0111454219030521,38.3667047494696,0.383667047494696,115.439191041879,1.15439191041879,0.504129263913824
"73","CAQQA12","3A1PQ49WVIEV0MNZL5FTEOEKNNN1HX","3R0WOCG21M6SBJC1AV1L9L8VPFRUDR","robot",31,"critical_fb","same","coconut","B",2,"coconut","coconut-B","coconut","B",1638911728822,1638911729275,453,"Y","N","male",28,1,1,42,44,0.954545454545455,"Y",1,1,0,0,1633.65664335664,1462.89804953426,6022.35079195944,2369.625,6.11589212548303,"mixed",47,NA,1065,11,96.8181818181818,823.169491525424,1120.69444444444,297.524952919021,1.11454219030521,NA,0.0111454219030521,38.3667047494696,0.383667047494696,115.439191041879,1.15439191041879,-0.495870736086176
"74","CAQQA12","3A1PQ49WVIEV0MNZL5FTEOEKNNN1HX","3R0WOCG21M6SBJC1AV1L9L8VPFRUDR","robot",34,"critical_fb","different","cheese","F",2,"cheese","cheese-B","cheese","B",1638911740952,1638911745014,4062,"Y","N","male",28,1,NA,42,44,0.954545454545455,"Y",0,0,1,1,1633.65664335664,1462.89804953426,6022.35079195944,2369.625,8.30943074214033,"mixed",47,NA,1065,11,96.8181818181818,823.169491525424,1120.69444444444,297.524952919021,1.11454219030521,NA,0.0111454219030521,38.3667047494696,0.383667047494696,115.439191041879,1.15439191041879,0.504129263913824
"75","CAQQA12","3A1PQ49WVIEV0MNZL5FTEOEKNNN1HX","3R0WOCG21M6SBJC1AV1L9L8VPFRUDR","robot",37,"critical_lr","same","shoe","L",2,"shoe","shoe-L","shoe","L",1638911756152,1638911756853,701,"Y","N","male",28,1,1,42,44,0.954545454545455,"Y",1,1,0,0,1633.65664335664,1462.89804953426,6022.35079195944,2369.625,6.55250788703459,"mixed",47,NA,1065,11,96.8181818181818,823.169491525424,1120.69444444444,297.524952919021,1.11454219030521,NA,0.0111454219030521,38.3667047494696,0.383667047494696,115.439191041879,1.15439191041879,-0.495870736086176
"76","CAQQA12","3A1PQ49WVIEV0MNZL5FTEOEKNNN1HX","3R0WOCG21M6SBJC1AV1L9L8VPFRUDR","robot",39,"critical_fb","different","frog","F",2,"frog","frog-B","frog","B",1638911763012,1638911764122,1110,"Y","N","male",28,1,NA,42,44,0.954545454545455,"Y",0,0,1,1,1633.65664335664,1462.89804953426,6022.35079195944,2369.625,7.01211529430638,"mixed",47,NA,1065,11,96.8181818181818,823.169491525424,1120.69444444444,297.524952919021,1.11454219030521,NA,0.0111454219030521,38.3667047494696,0.383667047494696,115.439191041879,1.15439191041879,0.504129263913824
"77","CAQQA12","3A1PQ49WVIEV0MNZL5FTEOEKNNN1HX","3R0WOCG21M6SBJC1AV1L9L8VPFRUDR","robot",42,"critical_lr","same","stapler","R",2,"stapler","stapler-R","stapler","R",1638911776192,1638911776627,435,"Y","N","male",28,1,1,42,44,0.954545454545455,"Y",1,1,0,0,1633.65664335664,1462.89804953426,6022.35079195944,2369.625,6.07534603108868,"mixed",47,NA,1065,11,96.8181818181818,823.169491525424,1120.69444444444,297.524952919021,1.11454219030521,NA,0.0111454219030521,38.3667047494696,0.383667047494696,115.439191041879,1.15439191041879,-0.495870736086176
"78","CAQQA12","3A1PQ49WVIEV0MNZL5FTEOEKNNN1HX","3R0WOCG21M6SBJC1AV1L9L8VPFRUDR","robot",45,"critical_fb","same","glove","B",2,"glove","glove-B","glove","B",1638911788632,1638911792599,3967,"Y","N","male",28,1,1,42,44,0.954545454545455,"Y",1,1,0,0,1633.65664335664,1462.89804953426,6022.35079195944,2369.625,8.28576542051433,"mixed",47,NA,1065,11,96.8181818181818,823.169491525424,1120.69444444444,297.524952919021,1.11454219030521,NA,0.0111454219030521,38.3667047494696,0.383667047494696,115.439191041879,1.15439191041879,-0.495870736086176
"79","CAQQA12","3A1PQ49WVIEV0MNZL5FTEOEKNNN1HX","3R0WOCG21M6SBJC1AV1L9L8VPFRUDR","robot",48,"critical_lr","same","crab","R",2,"crab","crab-R","crab","R",1638911807552,1638911812107,4555,"Y","N","male",28,1,1,42,44,0.954545454545455,"Y",1,1,0,0,1633.65664335664,1462.89804953426,6022.35079195944,2369.625,8.42398080969406,"mixed",47,NA,1065,11,96.8181818181818,823.169491525424,1120.69444444444,297.524952919021,1.11454219030521,NA,0.0111454219030521,38.3667047494696,0.383667047494696,115.439191041879,1.15439191041879,-0.495870736086176
"80","CAQQA12","3A1PQ49WVIEV0MNZL5FTEOEKNNN1HX","3R0WOCG21M6SBJC1AV1L9L8VPFRUDR","robot",50,"critical_lr","different","vase","R",2,"vase","vase-R","vase","R",1638911818692,1638911820594,1902,"Y","N","male",28,1,NA,42,44,0.954545454545455,"Y",1,1,0,0,1633.65664335664,1462.89804953426,6022.35079195944,2369.625,7.55066124310534,"mixed",47,NA,1065,11,96.8181818181818,823.169491525424,1120.69444444444,297.524952919021,1.11454219030521,NA,0.0111454219030521,38.3667047494696,0.383667047494696,115.439191041879,1.15439191041879,0.504129263913824
"81","UFDFA13","3U8YCDAGXQD86Q1K8CYN9XNBA4H0Q2","3GKAWYFRAPQFJE45T92RZFLWH2IDP5","robot",3,"critical_fb","same","stapler","B",2,"stapler","stapler-F","stapler","F",1639442369260,1639442370819,1559,"Y","Y","male",34,1,0,38,44,0.863636363636364,"Y",0,0,1,1,1633.65664335664,1462.89804953426,6022.35079195944,857.9375,7.35179986905778,"mixed",47,116,1170,12,97.5,816.372881355932,1056.46153846154,240.088657105606,1.11454219030521,-0.915596330275235,0.0111454219030521,39.0485229312877,0.390485229312877,58.0028952284649,0.580028952284649,-0.495870736086176
"82","UFDFA13","3U8YCDAGXQD86Q1K8CYN9XNBA4H0Q2","3GKAWYFRAPQFJE45T92RZFLWH2IDP5","robot",5,"critical_fb","different","clock","B",2,"clock","clock-F","clock","F",1639442378420,1639442379353,933,"Y","Y","male",34,1,NA,38,44,0.863636363636364,"Y",0,0,1,1,1633.65664335664,1462.89804953426,6022.35079195944,857.9375,6.83840520084734,"mixed",47,116,1170,12,97.5,816.372881355932,1056.46153846154,240.088657105606,1.11454219030521,-0.915596330275235,0.0111454219030521,39.0485229312877,0.390485229312877,58.0028952284649,0.580028952284649,0.504129263913824
"83","UFDFA13","3U8YCDAGXQD86Q1K8CYN9XNBA4H0Q2","3GKAWYFRAPQFJE45T92RZFLWH2IDP5","robot",7,"critical_fb","same","vase","B",2,"vase","vase-F","vase","F",1639442386400,1639442387083,683,"Y","Y","male",34,1,0,38,44,0.863636363636364,"Y",0,0,1,1,1633.65664335664,1462.89804953426,6022.35079195944,857.9375,6.52649485957079,"mixed",47,116,1170,12,97.5,816.372881355932,1056.46153846154,240.088657105606,1.11454219030521,-0.915596330275235,0.0111454219030521,39.0485229312877,0.390485229312877,58.0028952284649,0.580028952284649,-0.495870736086176
"84","UFDFA13","3U8YCDAGXQD86Q1K8CYN9XNBA4H0Q2","3GKAWYFRAPQFJE45T92RZFLWH2IDP5","robot",14,"critical_lr","same","cheese","L",2,"cheese","cheese-L","cheese","L",1639442417049,1639442417985,936,"Y","Y","male",34,1,1,38,44,0.863636363636364,"Y",1,1,0,0,1633.65664335664,1462.89804953426,6022.35079195944,857.9375,6.84161547647759,"mixed",47,116,1170,12,97.5,816.372881355932,1056.46153846154,240.088657105606,1.11454219030521,-0.915596330275235,0.0111454219030521,39.0485229312877,0.390485229312877,58.0028952284649,0.580028952284649,-0.495870736086176
"85","UFDFA13","3U8YCDAGXQD86Q1K8CYN9XNBA4H0Q2","3GKAWYFRAPQFJE45T92RZFLWH2IDP5","robot",16,"critical_fb","same","potato","F",2,"potato","potato-B","potato","B",1639442427438,1639442428132,694,"Y","Y","male",34,1,0,38,44,0.863636363636364,"Y",0,0,1,1,1633.65664335664,1462.89804953426,6022.35079195944,857.9375,6.5424719605068,"mixed",47,116,1170,12,97.5,816.372881355932,1056.46153846154,240.088657105606,1.11454219030521,-0.915596330275235,0.0111454219030521,39.0485229312877,0.390485229312877,58.0028952284649,0.580028952284649,-0.495870736086176
"86","UFDFA13","3U8YCDAGXQD86Q1K8CYN9XNBA4H0Q2","3GKAWYFRAPQFJE45T92RZFLWH2IDP5","robot",18,"critical_fb","same","cap","F",2,"cap","cap-B","cap","B",1639442436798,1639442437247,449,"Y","Y","male",34,1,0,38,44,0.863636363636364,"Y",0,0,1,1,1633.65664335664,1462.89804953426,6022.35079195944,857.9375,6.10702288774225,"mixed",47,116,1170,12,97.5,816.372881355932,1056.46153846154,240.088657105606,1.11454219030521,-0.915596330275235,0.0111454219030521,39.0485229312877,0.390485229312877,58.0028952284649,0.580028952284649,-0.495870736086176
"87","UFDFA13","3U8YCDAGXQD86Q1K8CYN9XNBA4H0Q2","3GKAWYFRAPQFJE45T92RZFLWH2IDP5","robot",22,"critical_fb","different","shoe","B",2,"shoe","shoe-F","shoe","F",1639442454426,1639442455146,720,"Y","Y","male",34,1,NA,38,44,0.863636363636364,"Y",0,0,1,1,1633.65664335664,1462.89804953426,6022.35079195944,857.9375,6.5792512120101,"mixed",47,116,1170,12,97.5,816.372881355932,1056.46153846154,240.088657105606,1.11454219030521,-0.915596330275235,0.0111454219030521,39.0485229312877,0.390485229312877,58.0028952284649,0.580028952284649,0.504129263913824
"88","UFDFA13","3U8YCDAGXQD86Q1K8CYN9XNBA4H0Q2","3GKAWYFRAPQFJE45T92RZFLWH2IDP5","robot",24,"critical_lr","same","plant","R",2,"plant","plant-R","plant","R",1639442463856,1639442464479,623,"Y","Y","male",34,1,1,38,44,0.863636363636364,"Y",1,1,0,0,1633.65664335664,1462.89804953426,6022.35079195944,857.9375,6.43454651878745,"mixed",47,116,1170,12,97.5,816.372881355932,1056.46153846154,240.088657105606,1.11454219030521,-0.915596330275235,0.0111454219030521,39.0485229312877,0.390485229312877,58.0028952284649,0.580028952284649,-0.495870736086176
"89","UFDFA13","3U8YCDAGXQD86Q1K8CYN9XNBA4H0Q2","3GKAWYFRAPQFJE45T92RZFLWH2IDP5","robot",27,"critical_lr","different","glove","R",2,"glove","glove-R","glove","R",1639442477056,1639442477858,802,"Y","Y","male",34,1,NA,38,44,0.863636363636364,"Y",1,1,0,0,1633.65664335664,1462.89804953426,6022.35079195944,857.9375,6.68710860786651,"mixed",47,116,1170,12,97.5,816.372881355932,1056.46153846154,240.088657105606,1.11454219030521,-0.915596330275235,0.0111454219030521,39.0485229312877,0.390485229312877,58.0028952284649,0.580028952284649,0.504129263913824
"90","UFDFA13","3U8YCDAGXQD86Q1K8CYN9XNBA4H0Q2","3GKAWYFRAPQFJE45T92RZFLWH2IDP5","robot",30,"critical_lr","same","key","R",2,"key","key-R","key","R",1639442491496,1639442492508,1012,"Y","Y","male",34,1,1,38,44,0.863636363636364,"Y",1,1,0,0,1633.65664335664,1462.89804953426,6022.35079195944,857.9375,6.91968384984741,"mixed",47,116,1170,12,97.5,816.372881355932,1056.46153846154,240.088657105606,1.11454219030521,-0.915596330275235,0.0111454219030521,39.0485229312877,0.390485229312877,58.0028952284649,0.580028952284649,-0.495870736086176
"91","UFDFA13","3U8YCDAGXQD86Q1K8CYN9XNBA4H0Q2","3GKAWYFRAPQFJE45T92RZFLWH2IDP5","robot",32,"critical_fb","different","lemon","F",2,"lemon","lemon-B","lemon","B",1639442503300,1639442504162,862,"Y","Y","male",34,1,NA,38,44,0.863636363636364,"Y",0,0,1,1,1633.65664335664,1462.89804953426,6022.35079195944,857.9375,6.75925527066369,"mixed",47,116,1170,12,97.5,816.372881355932,1056.46153846154,240.088657105606,1.11454219030521,-0.915596330275235,0.0111454219030521,39.0485229312877,0.390485229312877,58.0028952284649,0.580028952284649,0.504129263913824
"92","UFDFA13","3U8YCDAGXQD86Q1K8CYN9XNBA4H0Q2","3GKAWYFRAPQFJE45T92RZFLWH2IDP5","robot",37,"critical_fb","different","crab","F",2,"crab","crab-B","crab","B",1639442532099,1639442532561,462,"Y","Y","male",34,1,NA,38,44,0.863636363636364,"Y",0,0,1,1,1633.65664335664,1462.89804953426,6022.35079195944,857.9375,6.13556489108174,"mixed",47,116,1170,12,97.5,816.372881355932,1056.46153846154,240.088657105606,1.11454219030521,-0.915596330275235,0.0111454219030521,39.0485229312877,0.390485229312877,58.0028952284649,0.580028952284649,0.504129263913824
"93","UFDFA13","3U8YCDAGXQD86Q1K8CYN9XNBA4H0Q2","3GKAWYFRAPQFJE45T92RZFLWH2IDP5","robot",40,"critical_lr","different","coconut","L",2,"coconut","coconut-L","coconut","L",1639442548398,1639442549178,780,"Y","Y","male",34,1,NA,38,44,0.863636363636364,"Y",1,1,0,0,1633.65664335664,1462.89804953426,6022.35079195944,857.9375,6.65929391968364,"mixed",47,116,1170,12,97.5,816.372881355932,1056.46153846154,240.088657105606,1.11454219030521,-0.915596330275235,0.0111454219030521,39.0485229312877,0.390485229312877,58.0028952284649,0.580028952284649,0.504129263913824
"94","UFDFA13","3U8YCDAGXQD86Q1K8CYN9XNBA4H0Q2","3GKAWYFRAPQFJE45T92RZFLWH2IDP5","robot",42,"critical_lr","different","kettle","L",2,"kettle","kettle-L","kettle","L",1639442557478,1639442558873,1395,"Y","Y","male",34,1,NA,38,44,0.863636363636364,"Y",1,1,0,0,1633.65664335664,1462.89804953426,6022.35079195944,857.9375,7.24064969425547,"mixed",47,116,1170,12,97.5,816.372881355932,1056.46153846154,240.088657105606,1.11454219030521,-0.915596330275235,0.0111454219030521,39.0485229312877,0.390485229312877,58.0028952284649,0.580028952284649,0.504129263913824
"95","UFDFA13","3U8YCDAGXQD86Q1K8CYN9XNBA4H0Q2","3GKAWYFRAPQFJE45T92RZFLWH2IDP5","robot",46,"critical_lr","same","mushroom","L",2,"mushroom","mushroom-L","mushroom","L",1639442581997,1639442582988,991,"Y","Y","male",34,1,1,38,44,0.863636363636364,"Y",1,1,0,0,1633.65664335664,1462.89804953426,6022.35079195944,857.9375,6.89871453432999,"mixed",47,116,1170,12,97.5,816.372881355932,1056.46153846154,240.088657105606,1.11454219030521,-0.915596330275235,0.0111454219030521,39.0485229312877,0.390485229312877,58.0028952284649,0.580028952284649,-0.495870736086176
"96","UFDFA13","3U8YCDAGXQD86Q1K8CYN9XNBA4H0Q2","3GKAWYFRAPQFJE45T92RZFLWH2IDP5","robot",50,"critical_lr","different","frog","R",2,"frog","frog-R","frog","R",1639442604696,1639442605522,826,"Y","Y","male",34,1,NA,38,44,0.863636363636364,"Y",1,1,0,0,1633.65664335664,1462.89804953426,6022.35079195944,857.9375,6.71659477352098,"mixed",47,116,1170,12,97.5,816.372881355932,1056.46153846154,240.088657105606,1.11454219030521,-0.915596330275235,0.0111454219030521,39.0485229312877,0.390485229312877,58.0028952284649,0.580028952284649,0.504129263913824
"97","EKO0A14","3WSELTNVR4ZHZJRUHIPB38AB3XRTAZ","3GKAWYFRAPQFJE45T92RZFLWH2IDP5","robot",5,"critical_fb","same","key","B",2,"key","key-B","key","B",1639440478596,1639440479982,1386,"Y","N","male",37,1,1,44,44,1,"Y",1,1,0,0,1633.65664335664,1462.89804953426,6022.35079195944,1633.125,7.23417717974985,"mixed",41,100,585,12,48.75,810.033898305085,883.666666666667,73.6327683615818,-4.88545780969479,-16.9155963302752,-0.0488545780969479,-9.70147706871226,-0.0970147706871226,-108.45299351556,-1.0845299351556,-0.495870736086176
"98","EKO0A14","3WSELTNVR4ZHZJRUHIPB38AB3XRTAZ","3GKAWYFRAPQFJE45T92RZFLWH2IDP5","robot",7,"critical_lr","same","clock","L",2,"clock","clock-L","clock","L",1639440487966,1639440490523,2557,"Y","N","male",37,1,1,44,44,1,"Y",1,1,0,0,1633.65664335664,1462.89804953426,6022.35079195944,1633.125,7.84658997529119,"mixed",41,100,585,12,48.75,810.033898305085,883.666666666667,73.6327683615818,-4.88545780969479,-16.9155963302752,-0.0488545780969479,-9.70147706871226,-0.0970147706871226,-108.45299351556,-1.0845299351556,-0.495870736086176
"99","EKO0A14","3WSELTNVR4ZHZJRUHIPB38AB3XRTAZ","3GKAWYFRAPQFJE45T92RZFLWH2IDP5","robot",10,"critical_lr","different","crab","L",2,"crab","crab-L","crab","L",1639440501406,1639440503561,2155,"Y","N","male",37,1,NA,44,44,1,"Y",1,1,0,0,1633.65664335664,1462.89804953426,6022.35079195944,1633.125,7.67554600253785,"mixed",41,100,585,12,48.75,810.033898305085,883.666666666667,73.6327683615818,-4.88545780969479,-16.9155963302752,-0.0488545780969479,-9.70147706871226,-0.0970147706871226,-108.45299351556,-1.0845299351556,0.504129263913824
"100","EKO0A14","3WSELTNVR4ZHZJRUHIPB38AB3XRTAZ","3GKAWYFRAPQFJE45T92RZFLWH2IDP5","robot",13,"critical_lr","same","lemon","R",2,"lemon","lemon-R","lemon","R",1639440514485,1639440515484,999,"Y","N","male",37,1,1,44,44,1,"Y",1,1,0,0,1633.65664335664,1462.89804953426,6022.35079195944,1633.125,6.90675477864855,"mixed",41,100,585,12,48.75,810.033898305085,883.666666666667,73.6327683615818,-4.88545780969479,-16.9155963302752,-0.0488545780969479,-9.70147706871226,-0.0970147706871226,-108.45299351556,-1.0845299351556,-0.495870736086176
"101","EKO0A14","3WSELTNVR4ZHZJRUHIPB38AB3XRTAZ","3GKAWYFRAPQFJE45T92RZFLWH2IDP5","robot",19,"critical_lr","different","vase","R",2,"vase","vase-R","vase","R",1639440542485,1639440544026,1541,"Y","N","male",37,1,NA,44,44,1,"Y",1,1,0,0,1633.65664335664,1462.89804953426,6022.35079195944,1633.125,7.34018683532012,"mixed",41,100,585,12,48.75,810.033898305085,883.666666666667,73.6327683615818,-4.88545780969479,-16.9155963302752,-0.0488545780969479,-9.70147706871226,-0.0970147706871226,-108.45299351556,-1.0845299351556,0.504129263913824
"102","EKO0A14","3WSELTNVR4ZHZJRUHIPB38AB3XRTAZ","3GKAWYFRAPQFJE45T92RZFLWH2IDP5","robot",21,"critical_fb","different","glove","F",2,"glove","glove-B","glove","B",1639440550766,1639440553568,2802,"Y","N","male",37,1,NA,44,44,1,"Y",0,0,1,1,1633.65664335664,1462.89804953426,6022.35079195944,1633.125,7.93808872689695,"mixed",41,100,585,12,48.75,810.033898305085,883.666666666667,73.6327683615818,-4.88545780969479,-16.9155963302752,-0.0488545780969479,-9.70147706871226,-0.0970147706871226,-108.45299351556,-1.0845299351556,0.504129263913824
"103","EKO0A14","3WSELTNVR4ZHZJRUHIPB38AB3XRTAZ","3GKAWYFRAPQFJE45T92RZFLWH2IDP5","robot",24,"critical_fb","different","mushroom","B",2,"mushroom","mushroom-F","mushroom","F",1639440564995,1639440566673,1678,"Y","N","male",37,1,NA,44,44,1,"Y",0,0,1,1,1633.65664335664,1462.89804953426,6022.35079195944,1633.125,7.42535788702715,"mixed",41,100,585,12,48.75,810.033898305085,883.666666666667,73.6327683615818,-4.88545780969479,-16.9155963302752,-0.0488545780969479,-9.70147706871226,-0.0970147706871226,-108.45299351556,-1.0845299351556,0.504129263913824
"104","EKO0A14","3WSELTNVR4ZHZJRUHIPB38AB3XRTAZ","3GKAWYFRAPQFJE45T92RZFLWH2IDP5","robot",26,"critical_lr","same","cap","L",2,"cap","cap-L","cap","L",1639440573985,1639440577131,3146,"Y","N","male",37,1,1,44,44,1,"Y",1,1,0,0,1633.65664335664,1462.89804953426,6022.35079195944,1633.125,8.05388708361822,"mixed",41,100,585,12,48.75,810.033898305085,883.666666666667,73.6327683615818,-4.88545780969479,-16.9155963302752,-0.0488545780969479,-9.70147706871226,-0.0970147706871226,-108.45299351556,-1.0845299351556,-0.495870736086176
"105","EKO0A14","3WSELTNVR4ZHZJRUHIPB38AB3XRTAZ","3GKAWYFRAPQFJE45T92RZFLWH2IDP5","robot",29,"critical_fb","same","kettle","F",2,"kettle","kettle-F","kettle","F",1639440587015,1639440588654,1639,"Y","N","male",37,1,1,44,44,1,"Y",1,1,0,0,1633.65664335664,1462.89804953426,6022.35079195944,1633.125,7.40184157874383,"mixed",41,100,585,12,48.75,810.033898305085,883.666666666667,73.6327683615818,-4.88545780969479,-16.9155963302752,-0.0488545780969479,-9.70147706871226,-0.0970147706871226,-108.45299351556,-1.0845299351556,-0.495870736086176
"106","EKO0A14","3WSELTNVR4ZHZJRUHIPB38AB3XRTAZ","3GKAWYFRAPQFJE45T92RZFLWH2IDP5","robot",33,"critical_fb","same","coconut","B",2,"coconut","coconut-B","coconut","B",1639440604275,1639440605273,998,"Y","N","male",37,1,1,44,44,1,"Y",1,1,0,0,1633.65664335664,1462.89804953426,6022.35079195944,1633.125,6.90575327631146,"mixed",41,100,585,12,48.75,810.033898305085,883.666666666667,73.6327683615818,-4.88545780969479,-16.9155963302752,-0.0488545780969479,-9.70147706871226,-0.0970147706871226,-108.45299351556,-1.0845299351556,-0.495870736086176
"107","EKO0A14","3WSELTNVR4ZHZJRUHIPB38AB3XRTAZ","3GKAWYFRAPQFJE45T92RZFLWH2IDP5","robot",35,"critical_fb","same","frog","F",2,"frog","frog-F","frog","F",1639440612395,1639440613965,1570,"Y","N","male",37,1,1,44,44,1,"Y",1,1,0,0,1633.65664335664,1462.89804953426,6022.35079195944,1633.125,7.35883089834235,"mixed",41,100,585,12,48.75,810.033898305085,883.666666666667,73.6327683615818,-4.88545780969479,-16.9155963302752,-0.0488545780969479,-9.70147706871226,-0.0970147706871226,-108.45299351556,-1.0845299351556,-0.495870736086176
"108","EKO0A14","3WSELTNVR4ZHZJRUHIPB38AB3XRTAZ","3GKAWYFRAPQFJE45T92RZFLWH2IDP5","robot",40,"critical_lr","different","stapler","L",2,"stapler","stapler-L","stapler","L",1639440642055,1639440644155,2100,"Y","N","male",37,1,NA,44,44,1,"Y",1,1,0,0,1633.65664335664,1462.89804953426,6022.35079195944,1633.125,7.64969262371151,"mixed",41,100,585,12,48.75,810.033898305085,883.666666666667,73.6327683615818,-4.88545780969479,-16.9155963302752,-0.0488545780969479,-9.70147706871226,-0.0970147706871226,-108.45299351556,-1.0845299351556,0.504129263913824
"109","EKO0A14","3WSELTNVR4ZHZJRUHIPB38AB3XRTAZ","3GKAWYFRAPQFJE45T92RZFLWH2IDP5","robot",42,"critical_lr","same","potato","R",2,"potato","potato-R","potato","R",1639440654375,1639440654946,571,"Y","N","male",37,1,1,44,44,1,"Y",1,1,0,0,1633.65664335664,1462.89804953426,6022.35079195944,1633.125,6.34738920965601,"mixed",41,100,585,12,48.75,810.033898305085,883.666666666667,73.6327683615818,-4.88545780969479,-16.9155963302752,-0.0488545780969479,-9.70147706871226,-0.0970147706871226,-108.45299351556,-1.0845299351556,-0.495870736086176
"110","EKO0A14","3WSELTNVR4ZHZJRUHIPB38AB3XRTAZ","3GKAWYFRAPQFJE45T92RZFLWH2IDP5","robot",45,"critical_fb","different","cheese","B",2,"cheese","cheese-F","cheese","F",1639440665015,1639440665803,788,"Y","N","male",37,1,NA,44,44,1,"Y",0,0,1,1,1633.65664335664,1462.89804953426,6022.35079195944,1633.125,6.66949808985788,"mixed",41,100,585,12,48.75,810.033898305085,883.666666666667,73.6327683615818,-4.88545780969479,-16.9155963302752,-0.0488545780969479,-9.70147706871226,-0.0970147706871226,-108.45299351556,-1.0845299351556,0.504129263913824
"111","EKO0A14","3WSELTNVR4ZHZJRUHIPB38AB3XRTAZ","3GKAWYFRAPQFJE45T92RZFLWH2IDP5","robot",48,"critical_fb","different","plant","F",2,"plant","plant-B","plant","B",1639440675325,1639440676227,902,"Y","N","male",37,1,NA,44,44,1,"Y",0,0,1,1,1633.65664335664,1462.89804953426,6022.35079195944,1633.125,6.80461452006262,"mixed",41,100,585,12,48.75,810.033898305085,883.666666666667,73.6327683615818,-4.88545780969479,-16.9155963302752,-0.0488545780969479,-9.70147706871226,-0.0970147706871226,-108.45299351556,-1.0845299351556,0.504129263913824
"112","EKO0A14","3WSELTNVR4ZHZJRUHIPB38AB3XRTAZ","3GKAWYFRAPQFJE45T92RZFLWH2IDP5","robot",50,"critical_lr","different","shoe","R",2,"shoe","shoe-R","shoe","R",1639440683155,1639440684453,1298,"Y","N","male",37,1,NA,44,44,1,"Y",1,1,0,0,1633.65664335664,1462.89804953426,6022.35079195944,1633.125,7.16857989726403,"mixed",41,100,585,12,48.75,810.033898305085,883.666666666667,73.6327683615818,-4.88545780969479,-16.9155963302752,-0.0488545780969479,-9.70147706871226,-0.0970147706871226,-108.45299351556,-1.0845299351556,0.504129263913824
"113","J0RVA15","336YQZE83WBGGIPTDPXI9JZXHB65MG","3GKAWYFRAPQFJE45T92RZFLWH2IDP5","robot",5,"critical_lr","different","shoe","R",2,"shoe","shoe-R","shoe","R",1639451788489,1639451791092,2603,"Y","N","male",30,1,NA,37,44,0.840909090909091,"Y",1,1,0,0,1633.65664335664,1462.89804953426,6022.35079195944,3504.6875,7.86441990499457,"mixed",52,125,1320,12,110,1130.53448275862,1355.80555555556,225.271072796935,6.11454219030521,8.08440366972476,0.0611454219030521,51.5485229312877,0.515485229312877,43.1853109197935,0.431853109197935,0.504129263913824
"114","J0RVA15","336YQZE83WBGGIPTDPXI9JZXHB65MG","3GKAWYFRAPQFJE45T92RZFLWH2IDP5","robot",11,"critical_lr","different","cap","L",2,"cap","cap-R","cap","R",1639451829030,1639451833679,4649,"Y","N","male",30,1,NA,37,44,0.840909090909091,"Y",0,0,1,1,1633.65664335664,1462.89804953426,6022.35079195944,3504.6875,8.44440742169058,"mixed",52,125,1320,12,110,1130.53448275862,1355.80555555556,225.271072796935,6.11454219030521,8.08440366972476,0.0611454219030521,51.5485229312877,0.515485229312877,43.1853109197935,0.431853109197935,0.504129263913824
"115","J0RVA15","336YQZE83WBGGIPTDPXI9JZXHB65MG","3GKAWYFRAPQFJE45T92RZFLWH2IDP5","robot",18,"critical_fb","different","plant","F",2,"plant","plant-B","plant","B",1639451884499,1639451887067,2568,"Y","N","male",30,1,NA,37,44,0.840909090909091,"Y",0,0,1,1,1633.65664335664,1462.89804953426,6022.35079195944,3504.6875,7.85088266480985,"mixed",52,125,1320,12,110,1130.53448275862,1355.80555555556,225.271072796935,6.11454219030521,8.08440366972476,0.0611454219030521,51.5485229312877,0.515485229312877,43.1853109197935,0.431853109197935,0.504129263913824
"116","J0RVA15","336YQZE83WBGGIPTDPXI9JZXHB65MG","3GKAWYFRAPQFJE45T92RZFLWH2IDP5","robot",22,"critical_lr","same","stapler","R",2,"stapler","stapler-R","stapler","R",1639451909312,1639451911605,2293,"Y","N","male",30,1,1,37,44,0.840909090909091,"Y",1,1,0,0,1633.65664335664,1462.89804953426,6022.35079195944,3504.6875,7.7376162828579,"mixed",52,125,1320,12,110,1130.53448275862,1355.80555555556,225.271072796935,6.11454219030521,8.08440366972476,0.0611454219030521,51.5485229312877,0.515485229312877,43.1853109197935,0.431853109197935,-0.495870736086176
"117","J0RVA15","336YQZE83WBGGIPTDPXI9JZXHB65MG","3GKAWYFRAPQFJE45T92RZFLWH2IDP5","robot",24,"critical_fb","different","key","B",2,"key","key-F","key","F",1639451925071,1639451927350,2279,"Y","N","male",30,1,NA,37,44,0.840909090909091,"Y",0,0,1,1,1633.65664335664,1462.89804953426,6022.35079195944,3504.6875,7.73149202924568,"mixed",52,125,1320,12,110,1130.53448275862,1355.80555555556,225.271072796935,6.11454219030521,8.08440366972476,0.0611454219030521,51.5485229312877,0.515485229312877,43.1853109197935,0.431853109197935,0.504129263913824
"118","J0RVA15","336YQZE83WBGGIPTDPXI9JZXHB65MG","3GKAWYFRAPQFJE45T92RZFLWH2IDP5","robot",28,"critical_fb","different","cheese","F",2,"cheese","cheese-B","cheese","B",1639451944072,1639451946193,2121,"Y","N","male",30,1,NA,37,44,0.840909090909091,"Y",0,0,1,1,1633.65664335664,1462.89804953426,6022.35079195944,3504.6875,7.65964295456468,"mixed",52,125,1320,12,110,1130.53448275862,1355.80555555556,225.271072796935,6.11454219030521,8.08440366972476,0.0611454219030521,51.5485229312877,0.515485229312877,43.1853109197935,0.431853109197935,0.504129263913824
"119","J0RVA15","336YQZE83WBGGIPTDPXI9JZXHB65MG","3GKAWYFRAPQFJE45T92RZFLWH2IDP5","robot",32,"critical_lr","same","vase","L",2,"vase","vase-L","vase","L",1639451971280,1639451973496,2216,"Y","N","male",30,1,1,37,44,0.840909090909091,"Y",1,1,0,0,1633.65664335664,1462.89804953426,6022.35079195944,3504.6875,7.70345904786717,"mixed",52,125,1320,12,110,1130.53448275862,1355.80555555556,225.271072796935,6.11454219030521,8.08440366972476,0.0611454219030521,51.5485229312877,0.515485229312877,43.1853109197935,0.431853109197935,-0.495870736086176
"120","J0RVA15","336YQZE83WBGGIPTDPXI9JZXHB65MG","3GKAWYFRAPQFJE45T92RZFLWH2IDP5","robot",36,"critical_lr","different","crab","L",2,"crab","crab-L","crab","L",1639451989302,1639451990835,1533,"Y","N","male",30,1,NA,37,44,0.840909090909091,"Y",1,1,0,0,1633.65664335664,1462.89804953426,6022.35079195944,3504.6875,7.33498187887181,"mixed",52,125,1320,12,110,1130.53448275862,1355.80555555556,225.271072796935,6.11454219030521,8.08440366972476,0.0611454219030521,51.5485229312877,0.515485229312877,43.1853109197935,0.431853109197935,0.504129263913824
"121","J0RVA15","336YQZE83WBGGIPTDPXI9JZXHB65MG","3GKAWYFRAPQFJE45T92RZFLWH2IDP5","robot",39,"critical_lr","different","lemon","R",2,"lemon","lemon-R","lemon","R",1639452003141,1639452007045,3904,"Y","N","male",30,1,NA,37,44,0.840909090909091,"Y",1,1,0,0,1633.65664335664,1462.89804953426,6022.35079195944,3504.6875,8.26975694753298,"mixed",52,125,1320,12,110,1130.53448275862,1355.80555555556,225.271072796935,6.11454219030521,8.08440366972476,0.0611454219030521,51.5485229312877,0.515485229312877,43.1853109197935,0.431853109197935,0.504129263913824
"122","J0RVA15","336YQZE83WBGGIPTDPXI9JZXHB65MG","3GKAWYFRAPQFJE45T92RZFLWH2IDP5","robot",42,"critical_lr","same","potato","R",2,"potato","potato-R","potato","R",1639452030341,1639452032413,2072,"Y","N","male",30,1,1,37,44,0.840909090909091,"Y",1,1,0,0,1633.65664335664,1462.89804953426,6022.35079195944,3504.6875,7.63626960337937,"mixed",52,125,1320,12,110,1130.53448275862,1355.80555555556,225.271072796935,6.11454219030521,8.08440366972476,0.0611454219030521,51.5485229312877,0.515485229312877,43.1853109197935,0.431853109197935,-0.495870736086176
"123","J0RVA15","336YQZE83WBGGIPTDPXI9JZXHB65MG","3GKAWYFRAPQFJE45T92RZFLWH2IDP5","robot",45,"critical_lr","same","clock","L",2,"clock","clock-L","clock","L",1639452054477,1639452055861,1384,"Y","N","male",30,1,1,37,44,0.840909090909091,"Y",1,1,0,0,1633.65664335664,1462.89804953426,6022.35079195944,3504.6875,7.23273313617761,"mixed",52,125,1320,12,110,1130.53448275862,1355.80555555556,225.271072796935,6.11454219030521,8.08440366972476,0.0611454219030521,51.5485229312877,0.515485229312877,43.1853109197935,0.431853109197935,-0.495870736086176
"124","J0RVA15","336YQZE83WBGGIPTDPXI9JZXHB65MG","3GKAWYFRAPQFJE45T92RZFLWH2IDP5","robot",48,"critical_fb","same","kettle","F",2,"kettle","kettle-B","kettle","B",1639452087733,1639452089365,1632,"Y","N","male",30,1,0,37,44,0.840909090909091,"Y",0,0,1,1,1633.65664335664,1462.89804953426,6022.35079195944,3504.6875,7.39756153552405,"mixed",52,125,1320,12,110,1130.53448275862,1355.80555555556,225.271072796935,6.11454219030521,8.08440366972476,0.0611454219030521,51.5485229312877,0.515485229312877,43.1853109197935,0.431853109197935,-0.495870736086176
"125","J0RVA15","336YQZE83WBGGIPTDPXI9JZXHB65MG","3GKAWYFRAPQFJE45T92RZFLWH2IDP5","robot",50,"critical_fb","same","coconut","B",2,"coconut","coconut-F","coconut","F",1639452097574,1639452099104,1530,"Y","N","male",30,1,0,37,44,0.840909090909091,"Y",0,0,1,1,1633.65664335664,1462.89804953426,6022.35079195944,3504.6875,7.33302301438648,"mixed",52,125,1320,12,110,1130.53448275862,1355.80555555556,225.271072796935,6.11454219030521,8.08440366972476,0.0611454219030521,51.5485229312877,0.515485229312877,43.1853109197935,0.431853109197935,-0.495870736086176
"126","I0XUA16","354P56DE9L0Y1HGHLF81JCCZ05XS76","32CXT5U14G0GUOGATNQ5NTUUES3U82","robot",5,"critical_fb","same","coconut","F",2,"coconut","coconut-F","coconut","F",1639427255133,1639427257241,2108,"Y","N","male",39,1,1,43,44,0.977272727272727,"Y",1,1,0,0,1633.65664335664,1462.89804953426,6022.35079195944,1242.75,7.65349490966125,"mixed",36,103,735,12,61.25,733.666666666667,841.948717948718,108.282051282051,-9.88545780969479,-13.9155963302752,-0.0988545780969479,2.79852293128774,0.0279852293128774,-73.8037105950902,-0.738037105950902,-0.495870736086176
"127","I0XUA16","354P56DE9L0Y1HGHLF81JCCZ05XS76","32CXT5U14G0GUOGATNQ5NTUUES3U82","robot",7,"critical_lr","same","lemon","R",2,"lemon","lemon-R","lemon","R",1639427264413,1639427265182,769,"Y","N","male",39,1,1,43,44,0.977272727272727,"Y",1,1,0,0,1633.65664335664,1462.89804953426,6022.35079195944,1242.75,6.64509096950564,"mixed",36,103,735,12,61.25,733.666666666667,841.948717948718,108.282051282051,-9.88545780969479,-13.9155963302752,-0.0988545780969479,2.79852293128774,0.0279852293128774,-73.8037105950902,-0.738037105950902,-0.495870736086176
"128","I0XUA16","354P56DE9L0Y1HGHLF81JCCZ05XS76","32CXT5U14G0GUOGATNQ5NTUUES3U82","robot",10,"critical_fb","different","mushroom","B",2,"mushroom","mushroom-F","mushroom","F",1639427277320,1639427279315,1995,"Y","N","male",39,1,NA,43,44,0.977272727272727,"Y",0,0,1,1,1633.65664335664,1462.89804953426,6022.35079195944,1242.75,7.59839932932396,"mixed",36,103,735,12,61.25,733.666666666667,841.948717948718,108.282051282051,-9.88545780969479,-13.9155963302752,-0.0988545780969479,2.79852293128774,0.0279852293128774,-73.8037105950902,-0.738037105950902,0.504129263913824
"129","I0XUA16","354P56DE9L0Y1HGHLF81JCCZ05XS76","32CXT5U14G0GUOGATNQ5NTUUES3U82","robot",13,"critical_fb","same","plant","B",2,"plant","plant-B","plant","B",1639427289200,1639427289890,690,"Y","N","male",39,1,1,43,44,0.977272727272727,"Y",1,1,0,0,1633.65664335664,1462.89804953426,6022.35079195944,1242.75,6.5366915975913,"mixed",36,103,735,12,61.25,733.666666666667,841.948717948718,108.282051282051,-9.88545780969479,-13.9155963302752,-0.0988545780969479,2.79852293128774,0.0279852293128774,-73.8037105950902,-0.738037105950902,-0.495870736086176
"130","I0XUA16","354P56DE9L0Y1HGHLF81JCCZ05XS76","32CXT5U14G0GUOGATNQ5NTUUES3U82","robot",18,"critical_fb","same","frog","B",2,"frog","frog-B","frog","B",1639427305839,1639427306764,925,"Y","N","male",39,1,1,43,44,0.977272727272727,"Y",1,1,0,0,1633.65664335664,1462.89804953426,6022.35079195944,1242.75,6.82979373751242,"mixed",36,103,735,12,61.25,733.666666666667,841.948717948718,108.282051282051,-9.88545780969479,-13.9155963302752,-0.0988545780969479,2.79852293128774,0.0279852293128774,-73.8037105950902,-0.738037105950902,-0.495870736086176
"131","I0XUA16","354P56DE9L0Y1HGHLF81JCCZ05XS76","32CXT5U14G0GUOGATNQ5NTUUES3U82","robot",22,"critical_fb","different","key","F",2,"key","key-B","key","B",1639427320378,1639427320872,494,"Y","N","male",39,1,NA,43,44,0.977272727272727,"Y",0,0,1,1,1633.65664335664,1462.89804953426,6022.35079195944,1242.75,6.20253551718792,"mixed",36,103,735,12,61.25,733.666666666667,841.948717948718,108.282051282051,-9.88545780969479,-13.9155963302752,-0.0988545780969479,2.79852293128774,0.0279852293128774,-73.8037105950902,-0.738037105950902,0.504129263913824
"132","I0XUA16","354P56DE9L0Y1HGHLF81JCCZ05XS76","32CXT5U14G0GUOGATNQ5NTUUES3U82","robot",25,"critical_fb","different","cheese","F",2,"cheese","cheese-B","cheese","B",1639427333509,1639427334597,1088,"Y","N","male",39,1,NA,43,44,0.977272727272727,"Y",0,0,1,1,1633.65664335664,1462.89804953426,6022.35079195944,1242.75,6.99209642741589,"mixed",36,103,735,12,61.25,733.666666666667,841.948717948718,108.282051282051,-9.88545780969479,-13.9155963302752,-0.0988545780969479,2.79852293128774,0.0279852293128774,-73.8037105950902,-0.738037105950902,0.504129263913824
"133","I0XUA16","354P56DE9L0Y1HGHLF81JCCZ05XS76","32CXT5U14G0GUOGATNQ5NTUUES3U82","robot",28,"critical_lr","same","cap","L",2,"cap","cap-L","cap","L",1639427344588,1639427346022,1434,"Y","N","male",39,1,1,43,44,0.977272727272727,"Y",1,1,0,0,1633.65664335664,1462.89804953426,6022.35079195944,1242.75,7.26822302115957,"mixed",36,103,735,12,61.25,733.666666666667,841.948717948718,108.282051282051,-9.88545780969479,-13.9155963302752,-0.0988545780969479,2.79852293128774,0.0279852293128774,-73.8037105950902,-0.738037105950902,-0.495870736086176
"134","I0XUA16","354P56DE9L0Y1HGHLF81JCCZ05XS76","32CXT5U14G0GUOGATNQ5NTUUES3U82","robot",31,"critical_lr","different","potato","R",2,"potato","potato-R","potato","R",1639427355569,1639427356271,702,"Y","N","male",39,1,NA,43,44,0.977272727272727,"Y",1,1,0,0,1633.65664335664,1462.89804953426,6022.35079195944,1242.75,6.55393340402581,"mixed",36,103,735,12,61.25,733.666666666667,841.948717948718,108.282051282051,-9.88545780969479,-13.9155963302752,-0.0988545780969479,2.79852293128774,0.0279852293128774,-73.8037105950902,-0.738037105950902,0.504129263913824
"135","I0XUA16","354P56DE9L0Y1HGHLF81JCCZ05XS76","32CXT5U14G0GUOGATNQ5NTUUES3U82","robot",33,"critical_lr","same","stapler","L",2,"stapler","stapler-L","stapler","L",1639427363049,1639427363738,689,"Y","N","male",39,1,1,43,44,0.977272727272727,"Y",1,1,0,0,1633.65664335664,1462.89804953426,6022.35079195944,1242.75,6.53524127101366,"mixed",36,103,735,12,61.25,733.666666666667,841.948717948718,108.282051282051,-9.88545780969479,-13.9155963302752,-0.0988545780969479,2.79852293128774,0.0279852293128774,-73.8037105950902,-0.738037105950902,-0.495870736086176
"136","I0XUA16","354P56DE9L0Y1HGHLF81JCCZ05XS76","32CXT5U14G0GUOGATNQ5NTUUES3U82","robot",37,"critical_fb","same","kettle","F",2,"kettle","kettle-F","kettle","F",1639427378459,1639427379438,979,"Y","N","male",39,1,1,43,44,0.977272727272727,"Y",1,1,0,0,1633.65664335664,1462.89804953426,6022.35079195944,1242.75,6.88653164253051,"mixed",36,103,735,12,61.25,733.666666666667,841.948717948718,108.282051282051,-9.88545780969479,-13.9155963302752,-0.0988545780969479,2.79852293128774,0.0279852293128774,-73.8037105950902,-0.738037105950902,-0.495870736086176
"137","I0XUA16","354P56DE9L0Y1HGHLF81JCCZ05XS76","32CXT5U14G0GUOGATNQ5NTUUES3U82","robot",41,"critical_lr","different","crab","L",2,"crab","crab-L","crab","L",1639427393708,1639427394379,671,"Y","N","male",39,1,NA,43,44,0.977272727272727,"Y",1,1,0,0,1633.65664335664,1462.89804953426,6022.35079195944,1242.75,6.50876913697168,"mixed",36,103,735,12,61.25,733.666666666667,841.948717948718,108.282051282051,-9.88545780969479,-13.9155963302752,-0.0988545780969479,2.79852293128774,0.0279852293128774,-73.8037105950902,-0.738037105950902,0.504129263913824
"138","I0XUA16","354P56DE9L0Y1HGHLF81JCCZ05XS76","32CXT5U14G0GUOGATNQ5NTUUES3U82","robot",44,"critical_lr","same","vase","R",2,"vase","vase-R","vase","R",1639427404249,1639427405304,1055,"Y","N","male",39,1,1,43,44,0.977272727272727,"Y",1,1,0,0,1633.65664335664,1462.89804953426,6022.35079195944,1242.75,6.96129604591017,"mixed",36,103,735,12,61.25,733.666666666667,841.948717948718,108.282051282051,-9.88545780969479,-13.9155963302752,-0.0988545780969479,2.79852293128774,0.0279852293128774,-73.8037105950902,-0.738037105950902,-0.495870736086176
"139","I0XUA16","354P56DE9L0Y1HGHLF81JCCZ05XS76","32CXT5U14G0GUOGATNQ5NTUUES3U82","robot",46,"critical_fb","different","glove","B",2,"glove","glove-F","glove","F",1639427411464,1639427413371,1907,"Y","N","male",39,1,NA,43,44,0.977272727272727,"Y",0,0,1,1,1633.65664335664,1462.89804953426,6022.35079195944,1242.75,7.55328660560042,"mixed",36,103,735,12,61.25,733.666666666667,841.948717948718,108.282051282051,-9.88545780969479,-13.9155963302752,-0.0988545780969479,2.79852293128774,0.0279852293128774,-73.8037105950902,-0.738037105950902,0.504129263913824
"140","I0XUA16","354P56DE9L0Y1HGHLF81JCCZ05XS76","32CXT5U14G0GUOGATNQ5NTUUES3U82","robot",48,"critical_lr","different","clock","R",2,"clock","clock-R","clock","R",1639427419974,1639427420604,630,"Y","N","male",39,1,NA,43,44,0.977272727272727,"Y",1,1,0,0,1633.65664335664,1462.89804953426,6022.35079195944,1242.75,6.44571981938558,"mixed",36,103,735,12,61.25,733.666666666667,841.948717948718,108.282051282051,-9.88545780969479,-13.9155963302752,-0.0988545780969479,2.79852293128774,0.0279852293128774,-73.8037105950902,-0.738037105950902,0.504129263913824
"141","I0XUA16","354P56DE9L0Y1HGHLF81JCCZ05XS76","32CXT5U14G0GUOGATNQ5NTUUES3U82","robot",50,"critical_lr","different","shoe","L",2,"shoe","shoe-L","shoe","L",1639427427414,1639427431162,3748,"Y","N","male",39,1,NA,43,44,0.977272727272727,"Y",1,1,0,0,1633.65664335664,1462.89804953426,6022.35079195944,1242.75,8.22897764335831,"mixed",36,103,735,12,61.25,733.666666666667,841.948717948718,108.282051282051,-9.88545780969479,-13.9155963302752,-0.0988545780969479,2.79852293128774,0.0279852293128774,-73.8037105950902,-0.738037105950902,0.504129263913824
"142","NQL8A16","3QY5DC2MXSHRVNNRS31DM574IL9UFP","3G3AJKPCXLPWSWDDRLXH92K28M6Y45","robot",4,"critical_fb","different","kettle","B",2,"kettle","kettle-B","kettle","B",1638557307505,1638557310445,2940,"Y","N","female",53,1,NA,43,44,0.977272727272727,"Y",1,1,0,0,1633.65664335664,1462.89804953426,6022.35079195944,1142.25,7.98616486033273,"egocentric",28,81,1170,12,97.5,727.389830508475,967.692307692308,240.302477183833,-17.8854578096948,-35.9155963302752,-0.178854578096948,39.0485229312877,0.390485229312877,58.2167153066917,0.582167153066917,0.504129263913824
"143","NQL8A16","3QY5DC2MXSHRVNNRS31DM574IL9UFP","3G3AJKPCXLPWSWDDRLXH92K28M6Y45","robot",6,"critical_fb","same","plant","B",2,"plant","plant-B","plant","B",1638557321365,1638557322643,1278,"Y","N","female",53,1,1,43,44,0.977272727272727,"Y",1,1,0,0,1633.65664335664,1462.89804953426,6022.35079195944,1142.25,7.15305163493748,"egocentric",28,81,1170,12,97.5,727.389830508475,967.692307692308,240.302477183833,-17.8854578096948,-35.9155963302752,-0.178854578096948,39.0485229312877,0.390485229312877,58.2167153066917,0.582167153066917,-0.495870736086176
"144","NQL8A16","3QY5DC2MXSHRVNNRS31DM574IL9UFP","3G3AJKPCXLPWSWDDRLXH92K28M6Y45","robot",9,"critical_lr","different","crab","L",2,"crab","crab-L","crab","L",1638557335315,1638557336375,1060,"Y","N","female",53,1,NA,43,44,0.977272727272727,"Y",1,1,0,0,1633.65664335664,1462.89804953426,6022.35079195944,1142.25,6.96602418710611,"egocentric",28,81,1170,12,97.5,727.389830508475,967.692307692308,240.302477183833,-17.8854578096948,-35.9155963302752,-0.178854578096948,39.0485229312877,0.390485229312877,58.2167153066917,0.582167153066917,0.504129263913824
"145","NQL8A16","3QY5DC2MXSHRVNNRS31DM574IL9UFP","3G3AJKPCXLPWSWDDRLXH92K28M6Y45","robot",12,"critical_lr","same","clock","L",2,"clock","clock-L","clock","L",1638557346694,1638557347723,1029,"Y","N","female",53,1,1,43,44,0.977272727272727,"Y",1,1,0,0,1633.65664335664,1462.89804953426,6022.35079195944,1142.25,6.93634273583405,"egocentric",28,81,1170,12,97.5,727.389830508475,967.692307692308,240.302477183833,-17.8854578096948,-35.9155963302752,-0.178854578096948,39.0485229312877,0.390485229312877,58.2167153066917,0.582167153066917,-0.495870736086176
"146","NQL8A16","3QY5DC2MXSHRVNNRS31DM574IL9UFP","3G3AJKPCXLPWSWDDRLXH92K28M6Y45","robot",16,"critical_fb","different","coconut","B",2,"coconut","coconut-B","coconut","B",1638557366055,1638557366971,916,"Y","N","female",53,1,NA,43,44,0.977272727272727,"Y",1,1,0,0,1633.65664335664,1462.89804953426,6022.35079195944,1142.25,6.82001636467413,"egocentric",28,81,1170,12,97.5,727.389830508475,967.692307692308,240.302477183833,-17.8854578096948,-35.9155963302752,-0.178854578096948,39.0485229312877,0.390485229312877,58.2167153066917,0.582167153066917,0.504129263913824
"147","NQL8A16","3QY5DC2MXSHRVNNRS31DM574IL9UFP","3G3AJKPCXLPWSWDDRLXH92K28M6Y45","robot",18,"critical_fb","same","frog","F",2,"frog","frog-F","frog","F",1638557373455,1638557374770,1315,"Y","N","female",53,1,1,43,44,0.977272727272727,"Y",1,1,0,0,1633.65664335664,1462.89804953426,6022.35079195944,1142.25,7.18159194461187,"egocentric",28,81,1170,12,97.5,727.389830508475,967.692307692308,240.302477183833,-17.8854578096948,-35.9155963302752,-0.178854578096948,39.0485229312877,0.390485229312877,58.2167153066917,0.582167153066917,-0.495870736086176
"148","NQL8A16","3QY5DC2MXSHRVNNRS31DM574IL9UFP","3G3AJKPCXLPWSWDDRLXH92K28M6Y45","robot",22,"critical_fb","different","glove","F",2,"glove","glove-F","glove","F",1638557389814,1638557391318,1504,"Y","N","female",53,1,NA,43,44,0.977272727272727,"Y",1,1,0,0,1633.65664335664,1462.89804953426,6022.35079195944,1142.25,7.31588350450979,"egocentric",28,81,1170,12,97.5,727.389830508475,967.692307692308,240.302477183833,-17.8854578096948,-35.9155963302752,-0.178854578096948,39.0485229312877,0.390485229312877,58.2167153066917,0.582167153066917,0.504129263913824
"149","NQL8A16","3QY5DC2MXSHRVNNRS31DM574IL9UFP","3G3AJKPCXLPWSWDDRLXH92K28M6Y45","robot",25,"critical_fb","same","mushroom","B",2,"mushroom","mushroom-B","mushroom","B",1638557405801,1638557406816,1015,"Y","N","female",53,1,1,43,44,0.977272727272727,"Y",1,1,0,0,1633.65664335664,1462.89804953426,6022.35079195944,1142.25,6.92264389147589,"egocentric",28,81,1170,12,97.5,727.389830508475,967.692307692308,240.302477183833,-17.8854578096948,-35.9155963302752,-0.178854578096948,39.0485229312877,0.390485229312877,58.2167153066917,0.582167153066917,-0.495870736086176
"150","NQL8A16","3QY5DC2MXSHRVNNRS31DM574IL9UFP","3G3AJKPCXLPWSWDDRLXH92K28M6Y45","robot",27,"critical_lr","same","vase","L",2,"vase","vase-L","vase","L",1638557413981,1638557414798,817,"Y","N","female",53,1,1,43,44,0.977272727272727,"Y",1,1,0,0,1633.65664335664,1462.89804953426,6022.35079195944,1142.25,6.70563909486,"egocentric",28,81,1170,12,97.5,727.389830508475,967.692307692308,240.302477183833,-17.8854578096948,-35.9155963302752,-0.178854578096948,39.0485229312877,0.390485229312877,58.2167153066917,0.582167153066917,-0.495870736086176
"151","NQL8A16","3QY5DC2MXSHRVNNRS31DM574IL9UFP","3G3AJKPCXLPWSWDDRLXH92K28M6Y45","robot",29,"critical_fb","different","cheese","F",2,"cheese","cheese-F","cheese","F",1638557424081,1638557425096,1015,"Y","N","female",53,1,NA,43,44,0.977272727272727,"Y",1,1,0,0,1633.65664335664,1462.89804953426,6022.35079195944,1142.25,6.92264389147589,"egocentric",28,81,1170,12,97.5,727.389830508475,967.692307692308,240.302477183833,-17.8854578096948,-35.9155963302752,-0.178854578096948,39.0485229312877,0.390485229312877,58.2167153066917,0.582167153066917,0.504129263913824
"152","NQL8A16","3QY5DC2MXSHRVNNRS31DM574IL9UFP","3G3AJKPCXLPWSWDDRLXH92K28M6Y45","robot",33,"critical_fb","same","key","F",2,"key","key-F","key","F",1638557439059,1638557440376,1317,"Y","N","female",53,1,1,43,44,0.977272727272727,"Y",1,1,0,0,1633.65664335664,1462.89804953426,6022.35079195944,1142.25,7.18311170174328,"egocentric",28,81,1170,12,97.5,727.389830508475,967.692307692308,240.302477183833,-17.8854578096948,-35.9155963302752,-0.178854578096948,39.0485229312877,0.390485229312877,58.2167153066917,0.582167153066917,-0.495870736086176
"153","NQL8A16","3QY5DC2MXSHRVNNRS31DM574IL9UFP","3G3AJKPCXLPWSWDDRLXH92K28M6Y45","robot",39,"critical_lr","different","stapler","R",2,"stapler","stapler-R","stapler","R",1638557466259,1638557467139,880,"Y","N","female",53,1,NA,43,44,0.977272727272727,"Y",1,1,0,0,1633.65664335664,1462.89804953426,6022.35079195944,1142.25,6.77992190747225,"egocentric",28,81,1170,12,97.5,727.389830508475,967.692307692308,240.302477183833,-17.8854578096948,-35.9155963302752,-0.178854578096948,39.0485229312877,0.390485229312877,58.2167153066917,0.582167153066917,0.504129263913824
"154","NQL8A16","3QY5DC2MXSHRVNNRS31DM574IL9UFP","3G3AJKPCXLPWSWDDRLXH92K28M6Y45","robot",41,"critical_lr","same","potato","R",2,"potato","potato-R","potato","R",1638557474598,1638557475321,723,"Y","N","female",53,1,1,43,44,0.977272727272727,"Y",1,1,0,0,1633.65664335664,1462.89804953426,6022.35079195944,1142.25,6.58340922215876,"egocentric",28,81,1170,12,97.5,727.389830508475,967.692307692308,240.302477183833,-17.8854578096948,-35.9155963302752,-0.178854578096948,39.0485229312877,0.390485229312877,58.2167153066917,0.582167153066917,-0.495870736086176
"155","NQL8A16","3QY5DC2MXSHRVNNRS31DM574IL9UFP","3G3AJKPCXLPWSWDDRLXH92K28M6Y45","robot",43,"critical_lr","different","lemon","R",2,"lemon","lemon-R","lemon","R",1638557481618,1638557482721,1103,"Y","N","female",53,1,NA,43,44,0.977272727272727,"Y",1,1,0,0,1633.65664335664,1462.89804953426,6022.35079195944,1142.25,7.0057890192535,"egocentric",28,81,1170,12,97.5,727.389830508475,967.692307692308,240.302477183833,-17.8854578096948,-35.9155963302752,-0.178854578096948,39.0485229312877,0.390485229312877,58.2167153066917,0.582167153066917,0.504129263913824
"156","NQL8A16","3QY5DC2MXSHRVNNRS31DM574IL9UFP","3G3AJKPCXLPWSWDDRLXH92K28M6Y45","robot",46,"critical_lr","same","cap","R",2,"cap","cap-R","cap","R",1638557493700,1638557494288,588,"Y","N","female",53,1,1,43,44,0.977272727272727,"Y",1,1,0,0,1633.65664335664,1462.89804953426,6022.35079195944,1142.25,6.37672694789863,"egocentric",28,81,1170,12,97.5,727.389830508475,967.692307692308,240.302477183833,-17.8854578096948,-35.9155963302752,-0.178854578096948,39.0485229312877,0.390485229312877,58.2167153066917,0.582167153066917,-0.495870736086176
"157","NQL8A16","3QY5DC2MXSHRVNNRS31DM574IL9UFP","3G3AJKPCXLPWSWDDRLXH92K28M6Y45","robot",50,"critical_lr","different","shoe","L",2,"shoe","shoe-L","shoe","L",1638557508410,1638557509186,776,"Y","N","female",53,1,NA,43,44,0.977272727272727,"Y",1,1,0,0,1633.65664335664,1462.89804953426,6022.35079195944,1142.25,6.65415252018322,"egocentric",28,81,1170,12,97.5,727.389830508475,967.692307692308,240.302477183833,-17.8854578096948,-35.9155963302752,-0.178854578096948,39.0485229312877,0.390485229312877,58.2167153066917,0.582167153066917,0.504129263913824
"158","0E3JA19","3L4D84MIL0P2V333BULZIOA6IGNHJ6","3511RHPADVBJT38CJI44NNTGRR6LRF","robot",7,"critical_lr","same","glove","L",2,"glove","glove-L","glove","L",1639163635591,1639163639615,4024,"Y","N","female",25,1,1,44,44,1,"Y",1,1,0,0,1633.65664335664,1462.89804953426,6022.35079195944,2274.3125,8.30003171177957,"egocentric",20,78,1155,12,96.25,672.716666666667,786.8,114.083333333333,-25.8854578096948,-38.9155963302752,-0.258854578096948,37.7985229312877,0.377985229312877,-68.0024285438082,-0.680024285438082,-0.495870736086176
"159","0E3JA19","3L4D84MIL0P2V333BULZIOA6IGNHJ6","3511RHPADVBJT38CJI44NNTGRR6LRF","robot",11,"critical_fb","same","vase","F",2,"vase","vase-F","vase","F",1639163661190,1639163664290,3100,"Y","N","female",25,1,1,44,44,1,"Y",1,1,0,0,1633.65664335664,1462.89804953426,6022.35079195944,2274.3125,8.03915739047324,"egocentric",20,78,1155,12,96.25,672.716666666667,786.8,114.083333333333,-25.8854578096948,-38.9155963302752,-0.258854578096948,37.7985229312877,0.377985229312877,-68.0024285438082,-0.680024285438082,-0.495870736086176
"160","0E3JA19","3L4D84MIL0P2V333BULZIOA6IGNHJ6","3511RHPADVBJT38CJI44NNTGRR6LRF","robot",14,"critical_fb","same","stapler","B",2,"stapler","stapler-B","stapler","B",1639163680861,1639163682550,1689,"Y","N","female",25,1,1,44,44,1,"Y",1,1,0,0,1633.65664335664,1462.89804953426,6022.35079195944,2274.3125,7.4318919168078,"egocentric",20,78,1155,12,96.25,672.716666666667,786.8,114.083333333333,-25.8854578096948,-38.9155963302752,-0.258854578096948,37.7985229312877,0.377985229312877,-68.0024285438082,-0.680024285438082,-0.495870736086176
"161","0E3JA19","3L4D84MIL0P2V333BULZIOA6IGNHJ6","3511RHPADVBJT38CJI44NNTGRR6LRF","robot",18,"critical_fb","different","clock","B",2,"clock","clock-B","clock","B",1639163702271,1639163704767,2496,"Y","N","female",25,1,NA,44,44,1,"Y",1,1,0,0,1633.65664335664,1462.89804953426,6022.35079195944,2274.3125,7.82244472948932,"egocentric",20,78,1155,12,96.25,672.716666666667,786.8,114.083333333333,-25.8854578096948,-38.9155963302752,-0.258854578096948,37.7985229312877,0.377985229312877,-68.0024285438082,-0.680024285438082,0.504129263913824
"162","0E3JA19","3L4D84MIL0P2V333BULZIOA6IGNHJ6","3511RHPADVBJT38CJI44NNTGRR6LRF","robot",20,"critical_fb","different","potato","F",2,"potato","potato-F","potato","F",1639163712492,1639163715920,3428,"Y","N","female",25,1,NA,44,44,1,"Y",1,1,0,0,1633.65664335664,1462.89804953426,6022.35079195944,2274.3125,8.13973227971767,"egocentric",20,78,1155,12,96.25,672.716666666667,786.8,114.083333333333,-25.8854578096948,-38.9155963302752,-0.258854578096948,37.7985229312877,0.377985229312877,-68.0024285438082,-0.680024285438082,0.504129263913824
"163","0E3JA19","3L4D84MIL0P2V333BULZIOA6IGNHJ6","3511RHPADVBJT38CJI44NNTGRR6LRF","robot",24,"critical_fb","different","lemon","B",2,"lemon","lemon-B","lemon","B",1639163734713,1639163738197,3484,"Y","N","female",25,1,NA,44,44,1,"Y",1,1,0,0,1633.65664335664,1462.89804953426,6022.35079195944,2274.3125,8.15593633797239,"egocentric",20,78,1155,12,96.25,672.716666666667,786.8,114.083333333333,-25.8854578096948,-38.9155963302752,-0.258854578096948,37.7985229312877,0.377985229312877,-68.0024285438082,-0.680024285438082,0.504129263913824
"164","0E3JA19","3L4D84MIL0P2V333BULZIOA6IGNHJ6","3511RHPADVBJT38CJI44NNTGRR6LRF","robot",27,"critical_fb","same","cap","B",2,"cap","cap-B","cap","B",1639163749717,1639163750952,1235,"Y","N","female",25,1,1,44,44,1,"Y",1,1,0,0,1633.65664335664,1462.89804953426,6022.35079195944,2274.3125,7.11882624906208,"egocentric",20,78,1155,12,96.25,672.716666666667,786.8,114.083333333333,-25.8854578096948,-38.9155963302752,-0.258854578096948,37.7985229312877,0.377985229312877,-68.0024285438082,-0.680024285438082,-0.495870736086176
"165","0E3JA19","3L4D84MIL0P2V333BULZIOA6IGNHJ6","3511RHPADVBJT38CJI44NNTGRR6LRF","robot",29,"critical_lr","same","cheese","R",2,"cheese","cheese-R","cheese","R",1639163758267,1639163759376,1109,"Y","N","female",25,1,1,44,44,1,"Y",1,1,0,0,1633.65664335664,1462.89804953426,6022.35079195944,2274.3125,7.01121398735037,"egocentric",20,78,1155,12,96.25,672.716666666667,786.8,114.083333333333,-25.8854578096948,-38.9155963302752,-0.258854578096948,37.7985229312877,0.377985229312877,-68.0024285438082,-0.680024285438082,-0.495870736086176
"166","0E3JA19","3L4D84MIL0P2V333BULZIOA6IGNHJ6","3511RHPADVBJT38CJI44NNTGRR6LRF","robot",31,"critical_lr","different","frog","R",2,"frog","frog-R","frog","R",1639163766608,1639163767733,1125,"Y","N","female",25,1,NA,44,44,1,"Y",1,1,0,0,1633.65664335664,1462.89804953426,6022.35079195944,2274.3125,7.02553831463852,"egocentric",20,78,1155,12,96.25,672.716666666667,786.8,114.083333333333,-25.8854578096948,-38.9155963302752,-0.258854578096948,37.7985229312877,0.377985229312877,-68.0024285438082,-0.680024285438082,0.504129263913824
"167","0E3JA19","3L4D84MIL0P2V333BULZIOA6IGNHJ6","3511RHPADVBJT38CJI44NNTGRR6LRF","robot",35,"critical_lr","same","key","L",2,"key","key-L","key","L",1639163786230,1639163788225,1995,"Y","N","female",25,1,1,44,44,1,"Y",1,1,0,0,1633.65664335664,1462.89804953426,6022.35079195944,2274.3125,7.59839932932396,"egocentric",20,78,1155,12,96.25,672.716666666667,786.8,114.083333333333,-25.8854578096948,-38.9155963302752,-0.258854578096948,37.7985229312877,0.377985229312877,-68.0024285438082,-0.680024285438082,-0.495870736086176
"168","0E3JA19","3L4D84MIL0P2V333BULZIOA6IGNHJ6","3511RHPADVBJT38CJI44NNTGRR6LRF","robot",39,"critical_fb","different","crab","F",2,"crab","crab-F","crab","F",1639163805780,1639163807739,1959,"Y","N","female",25,1,NA,44,44,1,"Y",1,1,0,0,1633.65664335664,1462.89804953426,6022.35079195944,2274.3125,7.58018941794454,"egocentric",20,78,1155,12,96.25,672.716666666667,786.8,114.083333333333,-25.8854578096948,-38.9155963302752,-0.258854578096948,37.7985229312877,0.377985229312877,-68.0024285438082,-0.680024285438082,0.504129263913824
"169","0E3JA19","3L4D84MIL0P2V333BULZIOA6IGNHJ6","3511RHPADVBJT38CJI44NNTGRR6LRF","robot",42,"critical_lr","different","plant","L",2,"plant","plant-L","plant","L",1639163820872,1639163823353,2481,"Y","N","female",25,1,NA,44,44,1,"Y",1,1,0,0,1633.65664335664,1462.89804953426,6022.35079195944,2274.3125,7.8164169836918,"egocentric",20,78,1155,12,96.25,672.716666666667,786.8,114.083333333333,-25.8854578096948,-38.9155963302752,-0.258854578096948,37.7985229312877,0.377985229312877,-68.0024285438082,-0.680024285438082,0.504129263913824
"170","0E3JA19","3L4D84MIL0P2V333BULZIOA6IGNHJ6","3511RHPADVBJT38CJI44NNTGRR6LRF","robot",44,"critical_lr","different","mushroom","L",2,"mushroom","mushroom-L","mushroom","L",1639163832991,1639163834712,1721,"Y","N","female",25,1,NA,44,44,1,"Y",1,1,0,0,1633.65664335664,1462.89804953426,6022.35079195944,2274.3125,7.45066079621154,"egocentric",20,78,1155,12,96.25,672.716666666667,786.8,114.083333333333,-25.8854578096948,-38.9155963302752,-0.258854578096948,37.7985229312877,0.377985229312877,-68.0024285438082,-0.680024285438082,0.504129263913824
"171","0E3JA19","3L4D84MIL0P2V333BULZIOA6IGNHJ6","3511RHPADVBJT38CJI44NNTGRR6LRF","robot",46,"critical_lr","same","kettle","R",2,"kettle","kettle-R","kettle","R",1639163842890,1639163844811,1921,"Y","N","female",25,1,1,44,44,1,"Y",1,1,0,0,1633.65664335664,1462.89804953426,6022.35079195944,2274.3125,7.56060116276856,"egocentric",20,78,1155,12,96.25,672.716666666667,786.8,114.083333333333,-25.8854578096948,-38.9155963302752,-0.258854578096948,37.7985229312877,0.377985229312877,-68.0024285438082,-0.680024285438082,-0.495870736086176
"172","0E3JA19","3L4D84MIL0P2V333BULZIOA6IGNHJ6","3511RHPADVBJT38CJI44NNTGRR6LRF","robot",48,"critical_fb","same","shoe","F",2,"shoe","shoe-F","shoe","F",1639163851950,1639163853750,1800,"Y","N","female",25,1,1,44,44,1,"Y",1,1,0,0,1633.65664335664,1462.89804953426,6022.35079195944,2274.3125,7.49554194388426,"egocentric",20,78,1155,12,96.25,672.716666666667,786.8,114.083333333333,-25.8854578096948,-38.9155963302752,-0.258854578096948,37.7985229312877,0.377985229312877,-68.0024285438082,-0.680024285438082,-0.495870736086176
"173","0E3JA19","3L4D84MIL0P2V333BULZIOA6IGNHJ6","3511RHPADVBJT38CJI44NNTGRR6LRF","robot",50,"critical_lr","different","coconut","R",2,"coconut","coconut-R","coconut","R",1639163862050,1639163864872,2822,"Y","N","female",25,1,NA,44,44,1,"Y",1,1,0,0,1633.65664335664,1462.89804953426,6022.35079195944,2274.3125,7.94520113241276,"egocentric",20,78,1155,12,96.25,672.716666666667,786.8,114.083333333333,-25.8854578096948,-38.9155963302752,-0.258854578096948,37.7985229312877,0.377985229312877,-68.0024285438082,-0.680024285438082,0.504129263913824
"174","AX1ZA19","39O5D9O87UP0THQYMHFBRQW18AS3C4","3ZRKL6Z1E80F8QUONG7T05T4H87GSO","robot",3,"critical_fb","different","cap","F",2,"cap","cap-F","cap","F",1638818019927,1638818023127,3200,"Y","N","female",57,1,NA,43,43,1,"Y",1,1,0,0,1633.65664335664,1462.89804953426,6022.35079195944,1110.125,8.07090608878782,"egocentric",34,98,1395,12,116.25,820.2,933.125,112.925,-11.8854578096948,-18.9155963302752,-0.118854578096948,57.7985229312877,0.577985229312877,-69.1607618771415,-0.691607618771415,0.504129263913824
"175","AX1ZA19","39O5D9O87UP0THQYMHFBRQW18AS3C4","3ZRKL6Z1E80F8QUONG7T05T4H87GSO","robot",8,"critical_fb","same","clock","F",2,"clock","clock-F","clock","F",1638818040600,1638818043275,2675,"Y","N","female",57,1,1,43,43,1,"Y",1,1,0,0,1633.65664335664,1462.89804953426,6022.35079195944,1110.125,7.89170465933011,"egocentric",34,98,1395,12,116.25,820.2,933.125,112.925,-11.8854578096948,-18.9155963302752,-0.118854578096948,57.7985229312877,0.577985229312877,-69.1607618771415,-0.691607618771415,-0.495870736086176
"176","AX1ZA19","39O5D9O87UP0THQYMHFBRQW18AS3C4","3ZRKL6Z1E80F8QUONG7T05T4H87GSO","robot",15,"critical_fb","different","lemon","F",2,"lemon","lemon-F","lemon","F",1638818069347,1638818069976,629,"Y","N","female",57,1,NA,43,43,1,"Y",1,1,0,0,1633.65664335664,1462.89804953426,6022.35079195944,1110.125,6.44413125670044,"egocentric",34,98,1395,12,116.25,820.2,933.125,112.925,-11.8854578096948,-18.9155963302752,-0.118854578096948,57.7985229312877,0.577985229312877,-69.1607618771415,-0.691607618771415,0.504129263913824
"177","AX1ZA19","39O5D9O87UP0THQYMHFBRQW18AS3C4","3ZRKL6Z1E80F8QUONG7T05T4H87GSO","robot",17,"critical_lr","same","cheese","L",2,"cheese","cheese-L","cheese","L",1638818076276,1638818077032,756,"Y","N","female",57,1,1,43,43,1,"Y",1,1,0,0,1633.65664335664,1462.89804953426,6022.35079195944,1110.125,6.62804137617953,"egocentric",34,98,1395,12,116.25,820.2,933.125,112.925,-11.8854578096948,-18.9155963302752,-0.118854578096948,57.7985229312877,0.577985229312877,-69.1607618771415,-0.691607618771415,-0.495870736086176
"178","AX1ZA19","39O5D9O87UP0THQYMHFBRQW18AS3C4","3ZRKL6Z1E80F8QUONG7T05T4H87GSO","robot",20,"critical_lr","different","plant","L",2,"plant","plant-L","plant","L",1638818087088,1638818087850,762,"Y","N","female",57,1,NA,43,43,1,"Y",1,1,0,0,1633.65664335664,1462.89804953426,6022.35079195944,1110.125,6.63594655568665,"egocentric",34,98,1395,12,116.25,820.2,933.125,112.925,-11.8854578096948,-18.9155963302752,-0.118854578096948,57.7985229312877,0.577985229312877,-69.1607618771415,-0.691607618771415,0.504129263913824
"179","AX1ZA19","39O5D9O87UP0THQYMHFBRQW18AS3C4","3ZRKL6Z1E80F8QUONG7T05T4H87GSO","robot",23,"critical_fb","same","shoe","B",2,"shoe","shoe-B","shoe","B",1638818097934,1638818098634,700,"Y","N","female",57,1,1,43,43,1,"Y",1,1,0,0,1633.65664335664,1462.89804953426,6022.35079195944,1110.125,6.5510803350434,"egocentric",34,98,1395,12,116.25,820.2,933.125,112.925,-11.8854578096948,-18.9155963302752,-0.118854578096948,57.7985229312877,0.577985229312877,-69.1607618771415,-0.691607618771415,-0.495870736086176
"180","AX1ZA19","39O5D9O87UP0THQYMHFBRQW18AS3C4","3ZRKL6Z1E80F8QUONG7T05T4H87GSO","robot",25,"critical_fb","same","stapler","B",2,"stapler","stapler-B","stapler","B",1638818106630,1638818107462,832,"Y","N","female",57,1,1,43,43,1,"Y",1,1,0,0,1633.65664335664,1462.89804953426,6022.35079195944,1110.125,6.72383244082121,"egocentric",34,98,1395,12,116.25,820.2,933.125,112.925,-11.8854578096948,-18.9155963302752,-0.118854578096948,57.7985229312877,0.577985229312877,-69.1607618771415,-0.691607618771415,-0.495870736086176
"181","AX1ZA19","39O5D9O87UP0THQYMHFBRQW18AS3C4","3ZRKL6Z1E80F8QUONG7T05T4H87GSO","robot",27,"critical_lr","different","key","L",2,"key","key-L","key","L",1638818114017,1638818114785,768,"Y","N","female",57,1,NA,43,43,1,"Y",1,1,0,0,1633.65664335664,1462.89804953426,6022.35079195944,1110.125,6.64378973314767,"egocentric",34,98,1395,12,116.25,820.2,933.125,112.925,-11.8854578096948,-18.9155963302752,-0.118854578096948,57.7985229312877,0.577985229312877,-69.1607618771415,-0.691607618771415,0.504129263913824
"182","AX1ZA19","39O5D9O87UP0THQYMHFBRQW18AS3C4","3ZRKL6Z1E80F8QUONG7T05T4H87GSO","robot",32,"critical_lr","different","kettle","R",2,"kettle","kettle-R","kettle","R",1638818133478,1638818134179,701,"Y","N","female",57,1,NA,43,43,1,"Y",1,1,0,0,1633.65664335664,1462.89804953426,6022.35079195944,1110.125,6.55250788703459,"egocentric",34,98,1395,12,116.25,820.2,933.125,112.925,-11.8854578096948,-18.9155963302752,-0.118854578096948,57.7985229312877,0.577985229312877,-69.1607618771415,-0.691607618771415,0.504129263913824
